#version,serial,flight,call,time,rssi,lqi,acceleration,pressure,altitude,height,speed,temperature,drogue_voltage,main_voltage,battery_voltage,accel_x,accel_y,accel_z,gyro_roll,gyro_pitch,gyro_yaw,mag_x,mag_y,mag_z,tilt,pyro,igniter_a,igniter_b,igniter_c,igniter_d,connected,locked,nsat,latitude,longitude,altitude,year,month,day,hour,minute,second,pad_dist,pad_range,pad_az,pad_el,pdop,hdop,vdop
6, 2363, 0,KQ4YGQ,     0.00, -36,   8,    1.09, 101676.00,  -29.18,    2.99,   -0.13, 30.8, 0.00, 0.00, 3.78,   9.82,  -0.10,   1.46,   1.34,  -0.73,  -0.06,   0.98,   0.41,   1.15, 100.00, 3.77, 0.00, 0.00, 0.00, 0.00, 1, 0,  0,2147483647.0000000,2147483647.0000000,2147483647.0,2147483647,2147483647,2147483647,2147483647,2147483647,2147483647,        0,        0,   0,   0,  23.1,  23.1,  23.1
6, 2363, 0,KQ4YGQ,     0.00, -36,   7,    1.09, 101676.00,  -29.18,    2.99,   -0.13, 30.8, 0.00, 0.00, 3.78,   9.82,  -0.10,   1.46,   1.34,  -0.73,  -0.06,   0.98,   0.41,   1.15, 100.00, 3.77, 0.00, 0.00, 0.00, 0.00, 1, 0,  0,2147483647.0000000,2147483647.0000000,2147483647.0,2147483647,2147483647,2147483647,2147483647,2147483647,2147483647,        0,        0,   0,   0,  23.1,  23.1,  23.1
6, 2363, 0,KQ4YGQ,     0.60, -36,  12,    1.09, 101676.00,  -29.18,    2.99,   -0.13, 30.8, 0.00, 0.00, 3.78,   9.82,  -0.10,   1.46,   1.34,  -0.73,  -0.06,   0.98,   0.41,   1.15, 100.00, 3.77, 0.00, 0.00, 0.00, 0.00, 1, 0,  0,2147483647.0000000,2147483647.0000000,2147483647.0,2147483647,2147483647,2147483647,2147483647,2147483647,2147483647,        0,        0,   0,   0,  23.1,  23.1,  23.1
6, 2363, 0,KQ4YGQ,     0.68, -36,   7,    1.09, 101676.00,  -29.18,    2.99,   -0.13, 30.8, 0.00, 0.00, 3.78,   9.82,  -0.10,   1.46,   1.34,  -0.73,  -0.06,   0.98,   0.41,   1.15, 100.00, 3.77, 0.00, 0.00, 0.00, 0.00, 1, 0,  0,2147483647.0000000,2147483647.0000000,2147483647.0,2147483647,2147483647,2147483647,2147483647,2147483647,2147483647,        0,        0,   0,   0,  23.1,  23.1,  23.1
6, 2363, 0,KQ4YGQ,     1.00, -35,  11,    1.09, 101676.00,  -29.18,    2.99,   -0.13, 30.8, 0.00, 0.00, 3.78,   9.82,  -0.10,   1.46,   1.34,  -0.73,  -0.06,   0.98,   0.41,   1.15, 100.00, 3.77, 0.00, 0.00, 0.00, 0.00, 1, 0,  0,2147483647.0000000,2147483647.0000000,2147483647.0,2147483647,2147483647,2147483647,2147483647,2147483647,2147483647,        0,        0,   0,   0,  23.1,  23.1,  23.1
6, 2363, 0,KQ4YGQ,     1.00, -35,   9,    1.09, 101676.00,  -29.18,    2.99,   -0.13, 30.8, 0.00, 0.00, 3.78,   9.82,  -0.10,   1.46,   1.34,  -0.73,  -0.06,   0.98,   0.41,   1.15, 100.00, 3.77, 0.00, 0.00, 0.00, 0.00, 1, 0,  0,2147483647.0000000,2147483647.0000000,2147483647.0,2147483647,2147483647,2147483647,2147483647,2147483647,2147483647,        0,        0,   0,   0,  23.1,  23.1,  23.1
6, 2363, 0,KQ4YGQ,     1.60, -35,   7,   -0.54, 101679.00,  -29.43,    2.74,    0.58, 30.8, 0.00, 0.00, 3.78,   9.86,  -0.08,   1.21,   1.28,  -3.11,  -0.06,   0.98,   0.46,   1.15, 101.00, 3.77, 0.00, 0.00, 0.00, 0.00, 1, 0,  0,2147483647.0000000,2147483647.0000000,2147483647.0,2147483647,2147483647,2147483647,2147483647,2147483647,2147483647,        0,        0,   0,   0,  23.1,  23.1,  23.1
6, 2363, 0,KQ4YGQ,     1.68, -35,   8,   -0.54, 101679.00,  -29.43,    2.74,    0.58, 30.8, 0.00, 0.00, 3.78,   9.86,  -0.08,   1.21,   1.28,  -3.11,  -0.06,   0.98,   0.46,   1.15, 101.00, 3.78, 0.00, 0.00, 0.00, 0.00, 1, 0,  0,2147483647.0000000,2147483647.0000000,2147483647.0,2147483647,2147483647,2147483647,2147483647,2147483647,2147483647,        0,        0,   0,   0,  23.1,  23.1,  23.1
6, 2363, 0,KQ4YGQ,     3.00, -37,   7,   -0.54, 101679.00,  -29.43,    2.74,    0.58, 30.8, 0.00, 0.00, 3.78,   9.86,  -0.08,   1.21,   1.28,  -3.11,  -0.06,   0.98,   0.46,   1.15, 101.00, 3.78, 0.00, 0.00, 0.00, 0.00, 1, 0,  0,2147483647.0000000,2147483647.0000000,2147483647.0,2147483647,2147483647,2147483647,2147483647,2147483647,2147483647,        0,        0,   0,   0,  23.1,  23.1,  23.1
6, 2363, 0,KQ4YGQ,     3.00, -37,   8,   -0.54, 101679.00,  -29.43,    2.74,    0.58, 30.8, 0.00, 0.00, 3.78,   9.86,  -0.08,   1.21,   1.28,  -3.11,  -0.06,   0.98,   0.46,   1.15, 101.00, 3.78, 0.00, 0.00, 0.00, 0.00, 1, 0,  0,2147483647.0000000,2147483647.0000000,2147483647.0,2147483647,2147483647,2147483647,2147483647,2147483647,2147483647,        0,        0,   0,   0,  23.1,  23.1,  23.1
6, 2363, 0,KQ4YGQ,     3.65, -36,   8,   -0.54, 101664.00,  -28.18,    3.98,   -0.00, 30.9, 0.00, 0.00, 3.78,   9.89,  -0.08,   0.94,   1.34,  -8.42,  -0.37,   0.99,   0.58,   1.14,  99.00, 3.78, 0.00, 0.00, 0.00, 0.00, 1, 0,  0,2147483647.0000000,2147483647.0000000,2147483647.0,2147483647,2147483647,2147483647,2147483647,2147483647,2147483647,        0,        0,   0,   0,  23.1,  23.1,  23.1
6, 2363, 0,KQ4YGQ,     3.73, -37,   9,   -0.54, 101664.00,  -28.18,    3.98,   -0.00, 30.9, 0.00, 0.00, 3.78,   9.89,  -0.08,   0.94,   1.34,  -8.42,  -0.37,   0.99,   0.58,   1.14,  99.00, 3.78, 0.00, 0.00, 0.00, 0.00, 1, 0,  0,2147483647.0000000,2147483647.0000000,2147483647.0,2147483647,2147483647,2147483647,2147483647,2147483647,2147483647,        0,        0,   0,   0,  23.1,  23.1,  23.1
6, 2363, 0,KQ4YGQ,     4.00, -37,   7,   -0.54, 101664.00,  -28.18,    3.98,   -0.00, 30.9, 0.00, 0.00, 3.78,   9.89,  -0.08,   0.94,   1.34,  -8.42,  -0.37,   0.99,   0.58,   1.14,  99.00, 3.78, 0.00, 0.00, 0.00, 0.00, 1, 0,  0,2147483647.0000000,2147483647.0000000,2147483647.0,2147483647,2147483647,2147483647,2147483647,2147483647,2147483647,        0,        0,   0,   0,  23.1,  23.1,  23.1
6, 2363, 0,KQ4YGQ,     4.00, -37,   8,   -0.54, 101664.00,  -28.18,    3.98,   -0.00, 30.9, 0.00, 0.00, 3.78,   9.89,  -0.08,   0.94,   1.34,  -8.42,  -0.37,   0.99,   0.58,   1.14,  99.00, 3.78, 0.00, 0.00, 0.00, 0.00, 1, 0,  0,2147483647.0000000,2147483647.0000000,2147483647.0,2147483647,2147483647,2147483647,2147483647,2147483647,2147483647,        0,        0,   0,   0,  23.1,  23.1,  23.1
6, 2363, 0,KQ4YGQ,     4.00, -37,   6,   -0.54, 101664.00,  -28.18,    3.98,   -0.00, 30.9, 0.00, 0.00, 3.78,   9.89,  -0.08,   0.94,   1.34,  -8.42,  -0.37,   0.99,   0.58,   1.14,  99.00, 3.78, 0.00, 0.00, 0.00, 0.00, 1, 0,  0,2147483647.0000000,2147483647.0000000,2147483647.0,2147483647,2147483647,2147483647,2147483647,2147483647,2147483647,        0,        0,   0,   0,  23.1,  23.1,  23.1
6, 2363, 0,KQ4YGQ,     4.78, -36,   7,   -0.54, 101664.00,  -28.18,    3.98,   -0.00, 30.9, 0.00, 0.00, 3.77,   9.89,  -0.08,   0.94,   1.34,  -8.42,  -0.37,   0.99,   0.58,   1.14,  99.00, 3.78, 0.00, 0.00, 0.00, 0.00, 1, 0,  0,2147483647.0000000,2147483647.0000000,2147483647.0,2147483647,2147483647,2147483647,2147483647,2147483647,2147483647,        0,        0,   0,   0,  23.1,  23.1,  23.1
6, 2363, 0,KQ4YGQ,     5.00, -36,   8,   -0.54, 101664.00,  -28.18,    3.98,   -0.00, 30.9, 0.00, 0.00, 3.77,   9.89,  -0.08,   0.94,   1.34,  -8.42,  -0.37,   0.99,   0.58,   1.14,  99.00, 3.78, 0.00, 0.00, 0.00, 0.00, 1, 0,  0,2147483647.0000000,2147483647.0000000,2147483647.0,2147483647,2147483647,2147483647,2147483647,2147483647,2147483647,        0,        0,   0,   0,  23.1,  23.1,  23.1
6, 2363, 0,KQ4YGQ,     5.00, -36,   9,   -0.54, 101664.00,  -28.18,    3.98,   -0.00, 30.9, 0.00, 0.00, 3.77,   9.89,  -0.08,   0.94,   1.34,  -8.42,  -0.37,   0.99,   0.58,   1.14,  99.00, 3.78, 0.00, 0.00, 0.00, 0.00, 1, 0,  0,2147483647.0000000,2147483647.0000000,2147483647.0,2147483647,2147483647,2147483647,2147483647,2147483647,2147483647,        0,        0,   0,   0,  23.1,  23.1,  23.1
6, 2363, 0,KQ4YGQ,     5.70, -37,   6,   -0.00, 101666.00,  -28.35,    3.82,    0.19, 30.9, 0.00, 0.00, 3.77,   9.88,  -0.08,   0.90,   1.34,  -1.04,  -0.12,   1.00,   0.55,   1.14,  98.00, 3.78, 0.00, 0.00, 0.00, 0.00, 1, 0,  0,2147483647.0000000,2147483647.0000000,2147483647.0,2147483647,2147483647,2147483647,2147483647,2147483647,2147483647,        0,        0,   0,   0,  23.1,  23.1,  23.1
6, 2363, 0,KQ4YGQ,     5.78, -37,   9,   -0.00, 101666.00,  -28.35,    3.82,    0.19, 30.9, 0.00, 0.00, 3.77,   9.88,  -0.08,   0.90,   1.34,  -1.04,  -0.12,   1.00,   0.55,   1.14,  98.00, 3.79, 0.00, 0.00, 0.00, 0.00, 1, 0,  0,2147483647.0000000,2147483647.0000000,2147483647.0,2147483647,2147483647,2147483647,2147483647,2147483647,2147483647,        0,        0,   0,   0,  23.1,  23.1,  23.1
6, 2363, 0,KQ4YGQ,     5.99, -33,  17,   -0.00, 101666.00,  -28.35,    3.82,    0.19, 30.9, 0.00, 0.00, 3.77,   9.88,  -0.08,   0.90,   1.34,  -1.04,  -0.12,   1.00,   0.55,   1.14,  98.00, 3.79, 0.00, 0.00, 0.00, 0.00, 1, 0,  0,2147483647.0000000,2147483647.0000000,2147483647.0,2147483647,2147483647,2147483647,2147483647,2147483647,2147483647,        0,        0,   0,   0,  23.1,  23.1,  23.1
6, 2363, 0,KQ4YGQ,     5.99, -36,   8,   -0.00, 101666.00,  -28.35,    3.82,    0.19, 30.9, 0.00, 0.00, 3.77,   9.88,  -0.08,   0.90,   1.34,  -1.04,  -0.12,   1.00,   0.55,   1.14,  98.00, 3.79, 0.00, 0.00, 0.00, 0.00, 1, 0,  0,2147483647.0000000,2147483647.0000000,2147483647.0,2147483647,2147483647,2147483647,2147483647,2147483647,2147483647,        0,        0,   0,   0,  23.1,  23.1,  23.1
6, 2363, 0,KQ4YGQ,     6.75, -37,   8,   -0.00, 101657.00,  -27.60,    4.57,   -0.31, 30.9, 0.00, 0.00, 3.77,   9.80,  -0.12,   0.93,   1.40,  -4.09,   0.00,   1.00,   0.53,   1.14,  98.00, 3.79, 0.00, 0.00, 0.00, 0.00, 1, 0,  0,2147483647.0000000,2147483647.0000000,2147483647.0,2147483647,2147483647,2147483647,2147483647,2147483647,2147483647,        0,        0,   0,   0,  23.1,  23.1,  23.1
6, 2363, 0,KQ4YGQ,     6.83, -35,   8,   -0.00, 101657.00,  -27.60,    4.57,   -0.31, 30.9, 0.00, 0.00, 3.78,   9.80,  -0.12,   0.93,   1.40,  -4.09,   0.00,   1.00,   0.53,   1.14,  98.00, 3.78, 0.00, 0.00, 0.00, 0.00, 1, 0,  0,2147483647.0000000,2147483647.0000000,2147483647.0,2147483647,2147483647,2147483647,2147483647,2147483647,2147483647,        0,        0,   0,   0,  23.1,  23.1,  23.1
6, 2363, 0,KQ4YGQ,     7.00, -25,   9,   -0.00, 101657.00,  -27.60,    4.57,   -0.31, 30.9, 0.00, 0.00, 3.78,   9.80,  -0.12,   0.93,   1.40,  -4.09,   0.00,   1.00,   0.53,   1.14,  98.00, 3.78, 0.00, 0.00, 0.00, 0.00, 1, 0,  0,2147483647.0000000,2147483647.0000000,2147483647.0,2147483647,2147483647,2147483647,2147483647,2147483647,2147483647,        0,        0,   0,   0,  23.1,  23.1,  23.1
6, 2363, 0,KQ4YGQ,     7.00, -25,   9,   -0.00, 101657.00,  -27.60,    4.57,   -0.31, 30.9, 0.00, 0.00, 3.78,   9.80,  -0.12,   0.93,   1.40,  -4.09,   0.00,   1.00,   0.53,   1.14,  98.00, 3.78, 0.00, 0.00, 0.00, 0.00, 1, 0,  0,2147483647.0000000,2147483647.0000000,2147483647.0,2147483647,2147483647,2147483647,2147483647,2147483647,2147483647,        0,        0,   0,   0,  23.1,  23.1,  23.1
6, 2363, 0,KQ4YGQ,     7.75, -24,  10,   -0.00, 101668.00,  -28.51,    3.65,    0.54, 30.9, 0.00, 0.00, 3.78,   9.73,   0.00,   0.89,   1.46,   3.60,   0.12,   0.99,   0.54,   1.15,  98.00, 3.78, 0.00, 0.00, 0.00, 0.00, 1, 0,  0,2147483647.0000000,2147483647.0000000,2147483647.0,2147483647,2147483647,2147483647,2147483647,2147483647,2147483647,        0,        0,   0,   0,  23.1,  23.1,  23.1
6, 2363, 0,KQ4YGQ,     7.83, -27,   8,   -0.00, 101668.00,  -28.51,    3.65,    0.54, 30.9, 0.00, 0.00, 3.77,   9.73,   0.00,   0.89,   1.46,   3.60,   0.12,   0.99,   0.54,   1.15,  98.00, 3.95, 0.00, 0.00, 0.00, 0.00, 1, 0,  0,2147483647.0000000,2147483647.0000000,2147483647.0,2147483647,2147483647,2147483647,2147483647,2147483647,2147483647,        0,        0,   0,   0,  23.1,  23.1,  23.1
6, 2363, 0,KQ4YGQ,     8.00, -37,  10,   -0.00, 101668.00,  -28.51,    3.65,    0.54, 30.9, 0.00, 0.00, 3.77,   9.73,   0.00,   0.89,   1.46,   3.60,   0.12,   0.99,   0.54,   1.15,  98.00, 3.95, 0.00, 0.00, 0.00, 0.00, 1, 0,  0,2147483647.0000000,2147483647.0000000,2147483647.0,2147483647,2147483647,2147483647,2147483647,2147483647,2147483647,        0,        0,   0,   0,  23.1,  23.1,  23.1
6, 2363, 0,KQ4YGQ,     8.00, -34,   8,   -0.00, 101668.00,  -28.51,    3.65,    0.54, 30.9, 0.00, 0.00, 3.77,   9.73,   0.00,   0.89,   1.46,   3.60,   0.12,   0.99,   0.54,   1.15,  98.00, 3.95, 0.00, 0.00, 0.00, 0.00, 1, 0,  0,2147483647.0000000,2147483647.0000000,2147483647.0,2147483647,2147483647,2147483647,2147483647,2147483647,2147483647,        0,        0,   0,   0,  23.1,  23.1,  23.1
6, 2363, 0,KQ4YGQ,     8.88, -46,   7,   -0.00, 101668.00,  -28.51,    3.65,    0.54, 30.9, 0.00, 0.00, 3.78,   9.73,   0.00,   0.89,   1.46,   3.60,   0.12,   0.99,   0.54,   1.15,  98.00, 3.78, 0.00, 0.00, 0.00, 0.00, 1, 0,  0,2147483647.0000000,2147483647.0000000,2147483647.0,2147483647,2147483647,2147483647,2147483647,2147483647,2147483647,        0,        0,   0,   0,  23.1,  23.1,  23.1
6, 2363, 0,KQ4YGQ,     9.00, -56,  10,   -0.00, 101668.00,  -28.51,    3.65,    0.54, 30.9, 0.00, 0.00, 3.78,   9.73,   0.00,   0.89,   1.46,   3.60,   0.12,   0.99,   0.54,   1.15,  98.00, 3.78, 0.00, 0.00, 0.00, 0.00, 1, 0,  0,2147483647.0000000,2147483647.0000000,2147483647.0,2147483647,2147483647,2147483647,2147483647,2147483647,2147483647,        0,        0,   0,   0,  23.1,  23.1,  23.1
6, 2363, 0,KQ4YGQ,     9.00, -59,   8,   -0.00, 101668.00,  -28.51,    3.65,    0.54, 30.9, 0.00, 0.00, 3.78,   9.73,   0.00,   0.89,   1.46,   3.60,   0.12,   0.99,   0.54,   1.15,  98.00, 3.78, 0.00, 0.00, 0.00, 0.00, 1, 0,  0,2147483647.0000000,2147483647.0000000,2147483647.0,2147483647,2147483647,2147483647,2147483647,2147483647,2147483647,        0,        0,   0,   0,  23.1,  23.1,  23.1
6, 2363, 0,KQ4YGQ,     9.00, -39,   8,   -0.00, 101668.00,  -28.51,    3.65,    0.54, 30.9, 0.00, 0.00, 3.78,   9.73,   0.00,   0.89,   1.46,   3.60,   0.12,   0.99,   0.54,   1.15,  98.00, 3.78, 0.00, 0.00, 0.00, 0.00, 1, 0,  0,2147483647.0000000,2147483647.0000000,2147483647.0,2147483647,2147483647,2147483647,2147483647,2147483647,2147483647,        0,        0,   0,   0,  23.1,  23.1,  23.1
6, 2363, 0,KQ4YGQ,     9.80, -57,   8,   -0.00, 101652.00,  -27.18,    4.98,    0.05, 30.9, 0.00, 0.00, 3.78,   9.90,  -0.11,   0.97,   1.46,  -1.65,  -0.12,   1.00,   0.55,   1.15,  98.00, 3.78, 0.00, 0.00, 0.00, 0.00, 1, 0,  0,2147483647.0000000,2147483647.0000000,2147483647.0,2147483647,2147483647,2147483647,2147483647,2147483647,2147483647,        0,        0,   0,   0,  23.1,  23.1,  23.1
6, 2363, 0,KQ4YGQ,     9.88, -48,   7,   -0.00, 101652.00,  -27.18,    4.98,    0.05, 30.9, 0.00, 0.00, 3.77,   9.90,  -0.11,   0.97,   1.46,  -1.65,  -0.12,   1.00,   0.55,   1.15,  98.00, 3.77, 0.00, 0.00, 0.00, 0.00, 1, 0,  0,2147483647.0000000,2147483647.0000000,2147483647.0,2147483647,2147483647,2147483647,2147483647,2147483647,2147483647,        0,        0,   0,   0,  23.1,  23.1,  23.1
6, 2363, 0,KQ4YGQ,    10.00, -38,   9,   -0.00, 101652.00,  -27.18,    4.98,    0.05, 30.9, 0.00, 0.00, 3.77,   9.90,  -0.11,   0.97,   1.46,  -1.65,  -0.12,   1.00,   0.55,   1.15,  98.00, 3.77, 0.00, 0.00, 0.00, 0.00, 1, 0,  0,2147483647.0000000,2147483647.0000000,2147483647.0,2147483647,2147483647,2147483647,2147483647,2147483647,2147483647,        0,        0,   0,   0,  23.1,  23.1,  23.1
6, 2363, 0,KQ4YGQ,    10.00, -37,  12,   -0.00, 101652.00,  -27.18,    4.98,    0.05, 30.9, 0.00, 0.00, 3.77,   9.90,  -0.11,   0.97,   1.46,  -1.65,  -0.12,   1.00,   0.55,   1.15,  98.00, 3.77, 0.00, 0.00, 0.00, 0.00, 1, 0,  0,2147483647.0000000,2147483647.0000000,2147483647.0,2147483647,2147483647,2147483647,2147483647,2147483647,2147483647,        0,        0,   0,   0,  23.1,  23.1,  23.1
6, 2363, 0,KQ4YGQ,    12.00, -37,  10,   -0.00, 101652.00,  -27.18,    4.98,    0.05, 30.9, 0.00, 0.00, 3.77,   9.90,  -0.11,   0.97,   1.46,  -1.65,  -0.12,   1.00,   0.55,   1.15,  98.00, 3.77, 0.00, 0.00, 0.00, 0.00, 1, 0,  0,2147483647.0000000,2147483647.0000000,2147483647.0,2147483647,2147483647,2147483647,2147483647,2147483647,2147483647,        0,        0,   0,   0,  23.1,  23.1,  23.1
6, 2363, 0,KQ4YGQ,    12.00, -37,   8,   -0.00, 101652.00,  -27.18,    4.98,    0.05, 30.9, 0.00, 0.00, 3.77,   9.90,  -0.11,   0.97,   1.46,  -1.65,  -0.12,   1.00,   0.55,   1.15,  98.00, 3.77, 0.00, 0.00, 0.00, 0.00, 1, 0,  0,2147483647.0000000,2147483647.0000000,2147483647.0,2147483647,2147483647,2147483647,2147483647,2147483647,2147483647,        0,        0,   0,   0,  23.1,  23.1,  23.1
6, 2363, 0,KQ4YGQ,    12.60, -35,   8,   -0.00, 101647.00,  -26.77,    5.40,   -0.28, 31.0, 0.00, 0.00, 3.77,   9.90,  -0.11,   0.84,   1.53,  -0.12,   0.06,   1.00,   0.57,   1.15,  99.00, 3.77, 0.00, 0.00, 0.00, 0.00, 1, 0,  0,2147483647.0000000,2147483647.0000000,2147483647.0,2147483647,2147483647,2147483647,2147483647,2147483647,2147483647,        0,        0,   0,   0,  23.1,  23.1,  23.1
6, 2363, 0,KQ4YGQ,    12.68, -37,  10,   -0.00, 101647.00,  -26.77,    5.40,   -0.28, 31.0, 0.00, 0.00, 3.77,   9.90,  -0.11,   0.84,   1.53,  -0.12,   0.06,   1.00,   0.57,   1.15,  99.00, 3.77, 0.00, 0.00, 0.00, 0.00, 1, 0,  0,2147483647.0000000,2147483647.0000000,2147483647.0,2147483647,2147483647,2147483647,2147483647,2147483647,2147483647,        0,        0,   0,   0,  23.1,  23.1,  23.1
6, 2363, 0,KQ4YGQ,    12.99, -37,   7,   -0.00, 101647.00,  -26.77,    5.40,   -0.28, 31.0, 0.00, 0.00, 3.77,   9.90,  -0.11,   0.84,   1.53,  -0.12,   0.06,   1.00,   0.57,   1.15,  99.00, 3.77, 0.00, 0.00, 0.00, 0.00, 1, 0,  0,2147483647.0000000,2147483647.0000000,2147483647.0,2147483647,2147483647,2147483647,2147483647,2147483647,2147483647,        0,        0,   0,   0,  23.1,  23.1,  23.1
6, 2363, 0,KQ4YGQ,    12.99, -37,  10,   -0.00, 101647.00,  -26.77,    5.40,   -0.28, 31.0, 0.00, 0.00, 3.77,   9.90,  -0.11,   0.84,   1.53,  -0.12,   0.06,   1.00,   0.57,   1.15,  99.00, 3.77, 0.00, 0.00, 0.00, 0.00, 1, 0,  0,2147483647.0000000,2147483647.0000000,2147483647.0,2147483647,2147483647,2147483647,2147483647,2147483647,2147483647,        0,        0,   0,   0,  23.1,  23.1,  23.1
6, 2363, 0,KQ4YGQ,    13.60, -37,   8,   -0.00, 101661.00,  -27.93,    4.23,    0.13, 31.0, 0.00, 0.00, 3.77,   9.90,  -0.11,   0.68,   1.28,  -0.18,  -0.06,   1.00,   0.59,   1.15,  95.00, 3.77, 0.00, 0.00, 0.00, 0.00, 1, 0,  0,2147483647.0000000,2147483647.0000000,2147483647.0,2147483647,2147483647,2147483647,2147483647,2147483647,2147483647,        0,        0,   0,   0,  23.1,  23.1,  23.1
6, 2363, 0,KQ4YGQ,    13.68, -37,   7,   -0.00, 101661.00,  -27.93,    4.23,    0.13, 31.0, 0.00, 0.00, 3.78,   9.90,  -0.11,   0.68,   1.28,  -0.18,  -0.06,   1.00,   0.59,   1.15,  95.00, 3.79, 0.00, 0.00, 0.00, 0.00, 1, 0,  0,2147483647.0000000,2147483647.0000000,2147483647.0,2147483647,2147483647,2147483647,2147483647,2147483647,2147483647,        0,        0,   0,   0,  23.1,  23.1,  23.1
6, 2363, 0,KQ4YGQ,    13.99, -35,   8,   -0.00, 101661.00,  -27.93,    4.23,    0.13, 31.0, 0.00, 0.00, 3.78,   9.90,  -0.11,   0.68,   1.28,  -0.18,  -0.06,   1.00,   0.59,   1.15,  95.00, 3.79, 0.00, 0.00, 0.00, 0.00, 1, 0,  0,2147483647.0000000,2147483647.0000000,2147483647.0,2147483647,2147483647,2147483647,2147483647,2147483647,2147483647,        0,        0,   0,   0,  23.1,  23.1,  23.1
6, 2363, 0,KQ4YGQ,    13.99, -35,   8,   -0.00, 101661.00,  -27.93,    4.23,    0.13, 31.0, 0.00, 0.00, 3.78,   9.90,  -0.11,   0.68,   1.28,  -0.18,  -0.06,   1.00,   0.59,   1.15,  95.00, 3.79, 0.00, 0.00, 0.00, 0.00, 1, 0,  0,2147483647.0000000,2147483647.0000000,2147483647.0,2147483647,2147483647,2147483647,2147483647,2147483647,2147483647,        0,        0,   0,   0,  23.1,  23.1,  23.1
6, 2363, 0,KQ4YGQ,    14.65, -36,   7,   -0.54, 101643.00,  -26.44,    5.73,   -0.59, 31.0, 0.00, 0.00, 3.78,   9.87,  -0.10,   0.77,   1.28,  -6.04,   0.00,   1.00,   0.57,   1.16,  94.00, 3.79, 0.00, 0.00, 0.00, 0.00, 1, 0,  0,2147483647.0000000,2147483647.0000000,2147483647.0,2147483647,2147483647,2147483647,2147483647,2147483647,2147483647,        0,        0,   0,   0,  23.1,  23.1,  23.1
6, 2363, 0,KQ4YGQ,    14.73, -35,   9,   -0.54, 101643.00,  -26.44,    5.73,   -0.59, 31.0, 0.00, 0.00, 3.77,   9.87,  -0.10,   0.77,   1.28,  -6.04,   0.00,   1.00,   0.57,   1.16,  94.00, 3.78, 0.00, 0.00, 0.00, 0.00, 1, 0,  0,2147483647.0000000,2147483647.0000000,2147483647.0,2147483647,2147483647,2147483647,2147483647,2147483647,2147483647,        0,        0,   0,   0,  23.1,  23.1,  23.1
6, 2363, 0,KQ4YGQ,    15.00, -42,   7,   -0.54, 101643.00,  -26.44,    5.73,   -0.59, 31.0, 0.00, 0.00, 3.77,   9.87,  -0.10,   0.77,   1.28,  -6.04,   0.00,   1.00,   0.57,   1.16,  94.00, 3.78, 0.00, 0.00, 0.00, 0.00, 1, 0,  0,2147483647.0000000,2147483647.0000000,2147483647.0,2147483647,2147483647,2147483647,2147483647,2147483647,2147483647,        0,        0,   0,   0,  23.1,  23.1,  23.1
6, 2363, 0,KQ4YGQ,    15.00, -32,   9,   -0.54, 101643.00,  -26.44,    5.73,   -0.59, 31.0, 0.00, 0.00, 3.77,   9.87,  -0.10,   0.77,   1.28,  -6.04,   0.00,   1.00,   0.57,   1.16,  94.00, 3.78, 0.00, 0.00, 0.00, 0.00, 1, 0,  0,2147483647.0000000,2147483647.0000000,2147483647.0,2147483647,2147483647,2147483647,2147483647,2147483647,2147483647,        0,        0,   0,   0,  23.1,  23.1,  23.1
6, 2363, 0,KQ4YGQ,    15.00, -31,   8,   -0.54, 101643.00,  -26.44,    5.73,   -0.59, 31.0, 0.00, 0.00, 3.77,   9.87,  -0.10,   0.77,   1.28,  -6.04,   0.00,   1.00,   0.57,   1.16,  94.00, 3.78, 0.00, 0.00, 0.00, 0.00, 1, 0,  0,2147483647.0000000,2147483647.0000000,2147483647.0,2147483647,2147483647,2147483647,2147483647,2147483647,2147483647,        0,        0,   0,   0,  23.1,  23.1,  23.1
6, 2363, 0,KQ4YGQ,    15.65, -34,  14,   -0.54, 101664.00,  -28.18,    3.98,   -0.23, 31.0, 0.00, 0.00, 3.77,   9.87,  -0.13,   0.10,   1.59,  -5.74,  -0.18,   0.98,   0.67,   1.13,  98.00, 3.78, 0.00, 0.00, 0.00, 0.00, 1, 0,  0,2147483647.0000000,2147483647.0000000,2147483647.0,2147483647,2147483647,2147483647,2147483647,2147483647,2147483647,        0,        0,   0,   0,  23.1,  23.1,  23.1
6, 2363, 0,KQ4YGQ,    15.73, -40,  11,   -0.54, 101664.00,  -28.18,    3.98,   -0.23, 31.0, 0.00, 0.00, 3.77,   9.87,  -0.13,   0.10,   1.59,  -5.74,  -0.18,   0.98,   0.67,   1.13,  98.00, 3.92, 0.00, 0.00, 0.00, 0.00, 1, 0,  0,2147483647.0000000,2147483647.0000000,2147483647.0,2147483647,2147483647,2147483647,2147483647,2147483647,2147483647,        0,        0,   0,   0,  23.1,  23.1,  23.1
6, 2363, 0,KQ4YGQ,    16.99, -39,   7,   -0.54, 101664.00,  -28.18,    3.98,   -0.23, 31.0, 0.00, 0.00, 3.77,   9.87,  -0.13,   0.10,   1.59,  -5.74,  -0.18,   0.98,   0.67,   1.13,  98.00, 3.92, 0.00, 0.00, 0.00, 0.00, 1, 0,  0,2147483647.0000000,2147483647.0000000,2147483647.0,2147483647,2147483647,2147483647,2147483647,2147483647,2147483647,        0,        0,   0,   0,  23.1,  23.1,  23.1
6, 2363, 0,KQ4YGQ,    16.99, -39,  10,   -0.54, 101664.00,  -28.18,    3.98,   -0.23, 31.0, 0.00, 0.00, 3.77,   9.87,  -0.13,   0.10,   1.59,  -5.74,  -0.18,   0.98,   0.67,   1.13,  98.00, 3.92, 0.00, 0.00, 0.00, 0.00, 1, 0,  0,2147483647.0000000,2147483647.0000000,2147483647.0,2147483647,2147483647,2147483647,2147483647,2147483647,2147483647,        0,        0,   0,   0,  23.1,  23.1,  23.1
6, 2363, 0,KQ4YGQ,    17.78, -39,  10,   -0.54, 101665.00,  -28.26,    3.90,    0.06, 31.0, 0.00, 0.00, 3.77,   9.84,  -0.14,   0.91,   1.28,  -9.09,   0.18,   1.03,   0.61,   1.14,  92.00, 3.92, 0.00, 0.00, 0.00, 0.00, 1, 0,  0,2147483647.0000000,2147483647.0000000,2147483647.0,2147483647,2147483647,2147483647,2147483647,2147483647,2147483647,        0,        0,   0,   0,  23.1,  23.1,  23.1
6, 2363, 0,KQ4YGQ,    17.86, -39,   9,   -0.54, 101665.00,  -28.26,    3.90,    0.06, 31.0, 0.00, 0.00, 3.78,   9.84,  -0.14,   0.91,   1.28,  -9.09,   0.18,   1.03,   0.61,   1.14,  92.00, 3.77, 0.00, 0.00, 0.00, 0.00, 1, 0,  0,2147483647.0000000,2147483647.0000000,2147483647.0,2147483647,2147483647,2147483647,2147483647,2147483647,2147483647,        0,        0,   0,   0,  23.1,  23.1,  23.1
6, 2363, 0,KQ4YGQ,    19.00, -18,   6,   -0.54, 101665.00,  -28.26,    3.90,    0.06, 31.0, 0.00, 0.00, 3.78,   9.84,  -0.14,   0.91,   1.28,  -9.09,   0.18,   1.03,   0.61,   1.14,  92.00, 3.77, 0.00, 0.00, 0.00, 0.00, 1, 0,  0,2147483647.0000000,2147483647.0000000,2147483647.0,2147483647,2147483647,2147483647,2147483647,2147483647,2147483647,        0,        0,   0,   0,  23.1,  23.1,  23.1
6, 2363, 0,KQ4YGQ,    19.00, -19,  10,   -0.54, 101665.00,  -28.26,    3.90,    0.06, 31.0, 0.00, 0.00, 3.78,   9.84,  -0.14,   0.91,   1.28,  -9.09,   0.18,   1.03,   0.61,   1.14,  92.00, 3.77, 0.00, 0.00, 0.00, 0.00, 1, 0,  0,2147483647.0000000,2147483647.0000000,2147483647.0,2147483647,2147483647,2147483647,2147483647,2147483647,2147483647,        0,        0,   0,   0,  23.1,  23.1,  23.1
6, 2363, 0,KQ4YGQ,    19.91, -19,   9,   -0.54, 101665.00,  -28.26,    3.90,    0.06, 31.0, 0.00, 0.00, 3.77,   9.84,  -0.14,   0.91,   1.28,  -9.09,   0.18,   1.03,   0.61,   1.14,  92.00, 3.78, 0.00, 0.00, 0.00, 0.00, 1, 0,  0,2147483647.0000000,2147483647.0000000,2147483647.0,2147483647,2147483647,2147483647,2147483647,2147483647,2147483647,        0,        0,   0,   0,  23.1,  23.1,  23.1
6, 2363, 0,KQ4YGQ,    22.00, -30,   8,   -0.54, 101665.00,  -28.26,    3.90,    0.06, 31.0, 0.00, 0.00, 3.77,   9.84,  -0.14,   0.91,   1.28,  -9.09,   0.18,   1.03,   0.61,   1.14,  92.00, 3.78, 0.00, 0.00, 0.00, 0.00, 1, 0,  0,2147483647.0000000,2147483647.0000000,2147483647.0,2147483647,2147483647,2147483647,2147483647,2147483647,2147483647,        0,        0,   0,   0,  23.1,  23.1,  23.1
6, 2363, 0,KQ4YGQ,    22.00, -30,   9,   -0.54, 101665.00,  -28.26,    3.90,    0.06, 31.0, 0.00, 0.00, 3.77,   9.84,  -0.14,   0.91,   1.28,  -9.09,   0.18,   1.03,   0.61,   1.14,  92.00, 3.78, 0.00, 0.00, 0.00, 0.00, 1, 0,  0,2147483647.0000000,2147483647.0000000,2147483647.0,2147483647,2147483647,2147483647,2147483647,2147483647,2147483647,        0,        0,   0,   0,  23.1,  23.1,  23.1
6, 2363, 0,KQ4YGQ,    22.60, -30,  10,   -0.54, 101662.00,  -28.01,    4.15,   -0.21, 31.1, 0.00, 0.00, 3.77,   9.85,  -0.21,   0.91,   1.10,  -7.75,  -0.67,   1.10,   0.43,   1.30,  89.00, 3.78, 0.00, 0.00, 0.00, 0.00, 1, 0,  0,2147483647.0000000,2147483647.0000000,2147483647.0,2147483647,2147483647,2147483647,2147483647,2147483647,2147483647,        0,        0,   0,   0,  23.1,  23.1,  23.1
6, 2363, 0,KQ4YGQ,    22.68, -31,  10,   -0.54, 101662.00,  -28.01,    4.15,   -0.21, 31.1, 0.00, 0.00, 3.78,   9.85,  -0.21,   0.91,   1.10,  -7.75,  -0.67,   1.10,   0.43,   1.30,  89.00, 3.78, 0.00, 0.00, 0.00, 0.00, 1, 0,  0,2147483647.0000000,2147483647.0000000,2147483647.0,2147483647,2147483647,2147483647,2147483647,2147483647,2147483647,        0,        0,   0,   0,  23.1,  23.1,  23.1
6, 2363, 0,KQ4YGQ,    23.00, -19,   8,   -0.54, 101662.00,  -28.01,    4.15,   -0.21, 31.1, 0.00, 0.00, 3.78,   9.85,  -0.21,   0.91,   1.10,  -7.75,  -0.67,   1.10,   0.43,   1.30,  89.00, 3.78, 0.00, 0.00, 0.00, 0.00, 1, 0,  0,2147483647.0000000,2147483647.0000000,2147483647.0,2147483647,2147483647,2147483647,2147483647,2147483647,2147483647,        0,        0,   0,   0,  23.1,  23.1,  23.1
6, 2363, 0,KQ4YGQ,    23.60, -19,   8,   -0.54, 101660.00,  -27.85,    4.32,   -0.43, 31.1, 0.00, 0.00, 3.78,   9.82,  -0.09,   0.84,   1.28,  -4.33,  -0.12,   1.10,   0.47,   1.32,  90.00, 3.78, 0.00, 0.00, 0.00, 0.00, 1, 0,  0,2147483647.0000000,2147483647.0000000,2147483647.0,2147483647,2147483647,2147483647,2147483647,2147483647,2147483647,        0,        0,   0,   0,  23.1,  23.1,  23.1
6, 2363, 0,KQ4YGQ,    23.68, -19,   8,   -0.54, 101660.00,  -27.85,    4.32,   -0.43, 31.1, 0.00, 0.00, 3.78,   9.82,  -0.09,   0.84,   1.28,  -4.33,  -0.12,   1.10,   0.47,   1.32,  90.00, 3.77, 0.00, 0.00, 0.00, 0.00, 1, 0,  0,2147483647.0000000,2147483647.0000000,2147483647.0,2147483647,2147483647,2147483647,2147483647,2147483647,2147483647,        0,        0,   0,   0,  23.1,  23.1,  23.1
6, 2363, 0,KQ4YGQ,    24.00, -40,   9,   -0.54, 101660.00,  -27.85,    4.32,   -0.43, 31.1, 0.00, 0.00, 3.78,   9.82,  -0.09,   0.84,   1.28,  -4.33,  -0.12,   1.10,   0.47,   1.32,  90.00, 3.77, 0.00, 0.00, 0.00, 0.00, 1, 0,  0,2147483647.0000000,2147483647.0000000,2147483647.0,2147483647,2147483647,2147483647,2147483647,2147483647,2147483647,        0,        0,   0,   0,  23.1,  23.1,  23.1
6, 2363, 0,KQ4YGQ,    24.65, -39,  15,   -0.54, 101676.00,  -29.18,    2.99,    0.33, 31.1, 0.00, 0.00, 3.78,   9.90,  -0.12,   0.83,   1.22,  -4.09,   0.06,   1.10,   0.44,   1.31,  96.00, 3.77, 0.00, 0.00, 0.00, 0.00, 1, 0,  0,2147483647.0000000,2147483647.0000000,2147483647.0,2147483647,2147483647,2147483647,2147483647,2147483647,2147483647,        0,        0,   0,   0,  23.1,  23.1,  23.1
6, 2363, 0,KQ4YGQ,    24.73, -36,   9,   -0.54, 101676.00,  -29.18,    2.99,    0.33, 31.1, 0.00, 0.00, 3.77,   9.90,  -0.12,   0.83,   1.22,  -4.09,   0.06,   1.10,   0.44,   1.31,  96.00, 3.99, 0.00, 0.00, 0.00, 0.00, 1, 0,  0,2147483647.0000000,2147483647.0000000,2147483647.0,2147483647,2147483647,2147483647,2147483647,2147483647,2147483647,        0,        0,   0,   0,  23.1,  23.1,  23.1
6, 2363, 0,KQ4YGQ,    25.00, -30,   9,   -0.54, 101676.00,  -29.18,    2.99,    0.33, 31.1, 0.00, 0.00, 3.77,   9.90,  -0.12,   0.83,   1.22,  -4.09,   0.06,   1.10,   0.44,   1.31,  96.00, 3.99, 0.00, 0.00, 0.00, 0.00, 1, 0,  0,2147483647.0000000,2147483647.0000000,2147483647.0,2147483647,2147483647,2147483647,2147483647,2147483647,2147483647,        0,        0,   0,   0,  23.1,  23.1,  23.1
6, 2363, 0,KQ4YGQ,    25.00, -30,   7,   -0.54, 101676.00,  -29.18,    2.99,    0.33, 31.1, 0.00, 0.00, 3.77,   9.90,  -0.12,   0.83,   1.22,  -4.09,   0.06,   1.10,   0.44,   1.31,  96.00, 3.99, 0.00, 0.00, 0.00, 0.00, 1, 0,  0,2147483647.0000000,2147483647.0000000,2147483647.0,2147483647,2147483647,2147483647,2147483647,2147483647,2147483647,        0,        0,   0,   0,  23.1,  23.1,  23.1
6, 2363, 0,KQ4YGQ,    25.68, -30,  11,   -0.54, 101663.00,  -28.10,    4.07,    0.18, 31.2, 0.00, 0.00, 3.77,   9.86,  -0.14,   0.96,   2.32,   5.07,   0.55,   1.12,   0.46,   1.31,  97.00, 3.99, 0.00, 0.00, 0.00, 0.00, 1, 0,  0,2147483647.0000000,2147483647.0000000,2147483647.0,2147483647,2147483647,2147483647,2147483647,2147483647,2147483647,        0,        0,   0,   0,  23.1,  23.1,  23.1
6, 2363, 0,KQ4YGQ,    25.76, -30,   8,   -0.54, 101663.00,  -28.10,    4.07,    0.18, 31.2, 0.00, 0.00, 3.78,   9.86,  -0.14,   0.96,   2.32,   5.07,   0.55,   1.12,   0.46,   1.31,  97.00, 3.74, 0.00, 0.00, 0.00, 0.00, 1, 0,  0,2147483647.0000000,2147483647.0000000,2147483647.0,2147483647,2147483647,2147483647,2147483647,2147483647,2147483647,        0,        0,   0,   0,  23.1,  23.1,  23.1
6, 2363, 0,KQ4YGQ,    26.00, -31,   9,   -0.54, 101663.00,  -28.10,    4.07,    0.18, 31.2, 0.00, 0.00, 3.78,   9.86,  -0.14,   0.96,   2.32,   5.07,   0.55,   1.12,   0.46,   1.31,  97.00, 3.74, 0.00, 0.00, 0.00, 0.00, 1, 0,  0,2147483647.0000000,2147483647.0000000,2147483647.0,2147483647,2147483647,2147483647,2147483647,2147483647,2147483647,        0,        0,   0,   0,  23.1,  23.1,  23.1
6, 2363, 0,KQ4YGQ,    26.00, -30,   7,   -0.54, 101663.00,  -28.10,    4.07,    0.18, 31.2, 0.00, 0.00, 3.78,   9.86,  -0.14,   0.96,   2.32,   5.07,   0.55,   1.12,   0.46,   1.31,  97.00, 3.74, 0.00, 0.00, 0.00, 0.00, 1, 0,  0,2147483647.0000000,2147483647.0000000,2147483647.0,2147483647,2147483647,2147483647,2147483647,2147483647,2147483647,        0,        0,   0,   0,  23.1,  23.1,  23.1
6, 2363, 0,KQ4YGQ,    26.00, -31,   7,   -0.54, 101663.00,  -28.10,    4.07,    0.18, 31.2, 0.00, 0.00, 3.78,   9.86,  -0.14,   0.96,   2.32,   5.07,   0.55,   1.12,   0.46,   1.31,  97.00, 3.74, 0.00, 0.00, 0.00, 0.00, 1, 0,  0,2147483647.0000000,2147483647.0000000,2147483647.0,2147483647,2147483647,2147483647,2147483647,2147483647,2147483647,        0,        0,   0,   0,  23.1,  23.1,  23.1
6, 2363, 0,KQ4YGQ,    26.73, -30,  10,   -0.54, 101660.00,  -27.85,    4.32,   -0.19, 31.2, 0.00, 0.00, 3.78,   9.78,  -0.16,   0.58,   3.17, -36.38,   1.77,   1.25,   0.55,   1.42,  98.00, 3.74, 0.00, 0.00, 0.00, 0.00, 1, 0,  0,2147483647.0000000,2147483647.0000000,2147483647.0,2147483647,2147483647,2147483647,2147483647,2147483647,2147483647,        0,        0,   0,   0,  23.1,  23.1,  23.1
6, 2363, 0,KQ4YGQ,    26.81, -31,   7,   -0.54, 101660.00,  -27.85,    4.32,   -0.19, 31.2, 0.00, 0.00, 3.77,   9.78,  -0.16,   0.58,   3.17, -36.38,   1.77,   1.25,   0.55,   1.42,  98.00, 3.79, 0.00, 0.00, 0.00, 0.00, 1, 0,  0,2147483647.0000000,2147483647.0000000,2147483647.0,2147483647,2147483647,2147483647,2147483647,2147483647,2147483647,        0,        0,   0,   0,  23.1,  23.1,  23.1
6, 2363, 0,KQ4YGQ,    27.00, -31,  11,   -0.54, 101660.00,  -27.85,    4.32,   -0.19, 31.2, 0.00, 0.00, 3.77,   9.78,  -0.16,   0.58,   3.17, -36.38,   1.77,   1.25,   0.55,   1.42,  98.00, 3.79, 0.00, 0.00, 0.00, 0.00, 1, 0,  0,2147483647.0000000,2147483647.0000000,2147483647.0,2147483647,2147483647,2147483647,2147483647,2147483647,2147483647,        0,        0,   0,   0,  23.1,  23.1,  23.1
6, 2363, 0,KQ4YGQ,    27.00, -31,   7,   -0.54, 101660.00,  -27.85,    4.32,   -0.19, 31.2, 0.00, 0.00, 3.77,   9.78,  -0.16,   0.58,   3.17, -36.38,   1.77,   1.25,   0.55,   1.42,  98.00, 3.79, 0.00, 0.00, 0.00, 0.00, 1, 0,  0,2147483647.0000000,2147483647.0000000,2147483647.0,2147483647,2147483647,2147483647,2147483647,2147483647,2147483647,        0,        0,   0,   0,  23.1,  23.1,  23.1
6, 2363, 0,KQ4YGQ,    27.73, -31,   8,   -0.54, 101670.00,  -28.68,    3.49,    0.06, 31.2, 0.00, 0.00, 3.77,   9.89,  -0.19,   0.55,   3.23,  13.06,   1.83,   1.31,   0.80,   1.39, 102.00, 3.79, 0.00, 0.00, 0.00, 0.00, 1, 0,  0,2147483647.0000000,2147483647.0000000,2147483647.0,2147483647,2147483647,2147483647,2147483647,2147483647,2147483647,        0,        0,   0,   0,  23.1,  23.1,  23.1
6, 2363, 0,KQ4YGQ,    27.81, -31,   7,   -0.54, 101670.00,  -28.68,    3.49,    0.06, 31.2, 0.00, 0.00, 3.77,   9.89,  -0.19,   0.55,   3.23,  13.06,   1.83,   1.31,   0.80,   1.39, 102.00, 3.77, 0.00, 0.00, 0.00, 0.00, 1, 0,  0,2147483647.0000000,2147483647.0000000,2147483647.0,2147483647,2147483647,2147483647,2147483647,2147483647,2147483647,        0,        0,   0,   0,  23.1,  23.1,  23.1
6, 2363, 0,KQ4YGQ,    28.00, -33,   9,   -0.54, 101670.00,  -28.68,    3.49,    0.06, 31.2, 0.00, 0.00, 3.77,   9.89,  -0.19,   0.55,   3.23,  13.06,   1.83,   1.31,   0.80,   1.39, 102.00, 3.77, 0.00, 0.00, 0.00, 0.00, 1, 0,  0,2147483647.0000000,2147483647.0000000,2147483647.0,2147483647,2147483647,2147483647,2147483647,2147483647,2147483647,        0,        0,   0,   0,  23.1,  23.1,  23.1
6, 2363, 0,KQ4YGQ,    28.00, -33,   8,   -0.54, 101670.00,  -28.68,    3.49,    0.06, 31.2, 0.00, 0.00, 3.77,   9.89,  -0.19,   0.55,   3.23,  13.06,   1.83,   1.31,   0.80,   1.39, 102.00, 3.77, 0.00, 0.00, 0.00, 0.00, 1, 0,  0,2147483647.0000000,2147483647.0000000,2147483647.0,2147483647,2147483647,2147483647,2147483647,2147483647,2147483647,        0,        0,   0,   0,  23.1,  23.1,  23.1
6, 2363, 0,KQ4YGQ,    28.78, -33,   7,   -0.54, 101660.00,  -27.85,    4.32,   -0.14, 31.2, 0.00, 0.00, 3.77,   9.77,   1.38,   0.38,   6.78,   3.36,   2.44,   1.59,   0.82,   1.63, 106.00, 3.77, 0.00, 0.00, 0.00, 0.00, 1, 0,  0,2147483647.0000000,2147483647.0000000,2147483647.0,2147483647,2147483647,2147483647,2147483647,2147483647,2147483647,        0,        0,   0,   0,  23.1,  23.1,  23.1
6, 2363, 0,KQ4YGQ,    28.86, -33,  10,   -0.54, 101660.00,  -27.85,    4.32,   -0.14, 31.2, 0.00, 0.00, 3.77,   9.77,   1.38,   0.38,   6.78,   3.36,   2.44,   1.59,   0.82,   1.63, 106.00, 3.79, 0.00, 0.00, 0.00, 0.00, 1, 0,  0,2147483647.0000000,2147483647.0000000,2147483647.0,2147483647,2147483647,2147483647,2147483647,2147483647,2147483647,        0,        0,   0,   0,  23.1,  23.1,  23.1
6, 2363, 0,KQ4YGQ,    29.00, -37,   8,   -0.54, 101660.00,  -27.85,    4.32,   -0.14, 31.2, 0.00, 0.00, 3.77,   9.77,   1.38,   0.38,   6.78,   3.36,   2.44,   1.59,   0.82,   1.63, 106.00, 3.79, 0.00, 0.00, 0.00, 0.00, 1, 0,  0,2147483647.0000000,2147483647.0000000,2147483647.0,2147483647,2147483647,2147483647,2147483647,2147483647,2147483647,        0,        0,   0,   0,  23.1,  23.1,  23.1
6, 2363, 0,KQ4YGQ,    29.00, -35,  10,   -0.54, 101660.00,  -27.85,    4.32,   -0.14, 31.2, 0.00, 0.00, 3.77,   9.77,   1.38,   0.38,   6.78,   3.36,   2.44,   1.59,   0.82,   1.63, 106.00, 3.79, 0.00, 0.00, 0.00, 0.00, 1, 0,  0,2147483647.0000000,2147483647.0000000,2147483647.0,2147483647,2147483647,2147483647,2147483647,2147483647,2147483647,        0,        0,   0,   0,  23.1,  23.1,  23.1
6, 2363, 0,KQ4YGQ,    29.78, -38,   9,   -0.54, 101670.00,  -28.68,    3.49,    0.17, 31.2, 0.00, 0.00, 3.77,   9.76,  -0.52,  -0.54, -22.89,  -7.20,   3.17,   1.53,   0.67,  -3.76, 109.00, 3.79, 0.00, 0.00, 0.00, 0.00, 1, 0,  0,2147483647.0000000,2147483647.0000000,2147483647.0,2147483647,2147483647,2147483647,2147483647,2147483647,2147483647,        0,        0,   0,   0,  23.1,  23.1,  23.1
6, 2363, 0,KQ4YGQ,    29.86, -37,   8,   -0.54, 101670.00,  -28.68,    3.49,    0.17, 31.2, 0.00, 0.00, 3.78,   9.76,  -0.52,  -0.54, -22.89,  -7.20,   3.17,   1.53,   0.67,  -3.76, 109.00, 3.77, 0.00, 0.00, 0.00, 0.00, 1, 0,  0,2147483647.0000000,2147483647.0000000,2147483647.0,2147483647,2147483647,2147483647,2147483647,2147483647,2147483647,        0,        0,   0,   0,  23.1,  23.1,  23.1
6, 2363, 0,KQ4YGQ,    30.00, -36,   8,   -0.54, 101670.00,  -28.68,    3.49,    0.17, 31.2, 0.00, 0.00, 3.78,   9.76,  -0.52,  -0.54, -22.89,  -7.20,   3.17,   1.53,   0.67,  -3.76, 109.00, 3.77, 0.00, 0.00, 0.00, 0.00, 1, 0,  0,2147483647.0000000,2147483647.0000000,2147483647.0,2147483647,2147483647,2147483647,2147483647,2147483647,2147483647,        0,        0,   0,   0,  23.1,  23.1,  23.1
6, 2363, 0,KQ4YGQ,    30.00, -38,   7,   -0.54, 101670.00,  -28.68,    3.49,    0.17, 31.2, 0.00, 0.00, 3.78,   9.76,  -0.52,  -0.54, -22.89,  -7.20,   3.17,   1.53,   0.67,  -3.76, 109.00, 3.77, 0.00, 0.00, 0.00, 0.00, 1, 0,  0,2147483647.0000000,2147483647.0000000,2147483647.0,2147483647,2147483647,2147483647,2147483647,2147483647,2147483647,        0,        0,   0,   0,  23.1,  23.1,  23.1
6, 2363, 0,KQ4YGQ,    30.83, -34,  10,   -0.54, 101664.00,  -28.18,    3.98,    0.33, 31.2, 0.00, 0.00, 3.78,   9.84,  -0.05,  -0.73,   5.68,  15.14,  -1.22,   1.74,   0.53,  -3.76, 112.00, 3.77, 0.00, 0.00, 0.00, 0.00, 1, 0,  0,2147483647.0000000,2147483647.0000000,2147483647.0,2147483647,2147483647,2147483647,2147483647,2147483647,2147483647,        0,        0,   0,   0,  23.1,  23.1,  23.1
6, 2363, 0,KQ4YGQ,    30.91, -36,  10,   -0.54, 101664.00,  -28.18,    3.98,    0.33, 31.2, 0.00, 0.00, 3.78,   9.84,  -0.05,  -0.73,   5.68,  15.14,  -1.22,   1.74,   0.53,  -3.76, 112.00, 3.77, 0.00, 0.00, 0.00, 0.00, 1, 0,  0,2147483647.0000000,2147483647.0000000,2147483647.0,2147483647,2147483647,2147483647,2147483647,2147483647,2147483647,        0,        0,   0,   0,  23.1,  23.1,  23.1
6, 2363, 0,KQ4YGQ,    31.00, -38,  10,   -0.54, 101664.00,  -28.18,    3.98,    0.33, 31.2, 0.00, 0.00, 3.78,   9.84,  -0.05,  -0.73,   5.68,  15.14,  -1.22,   1.74,   0.53,  -3.76, 112.00, 3.77, 0.00, 0.00, 0.00, 0.00, 1, 0,  0,2147483647.0000000,2147483647.0000000,2147483647.0,2147483647,2147483647,2147483647,2147483647,2147483647,2147483647,        0,        0,   0,   0,  23.1,  23.1,  23.1
6, 2363, 0,KQ4YGQ,    31.00, -39,   9,   -0.54, 101664.00,  -28.18,    3.98,    0.33, 31.2, 0.00, 0.00, 3.78,   9.84,  -0.05,  -0.73,   5.68,  15.14,  -1.22,   1.74,   0.53,  -3.76, 112.00, 3.77, 0.00, 0.00, 0.00, 0.00, 1, 0,  0,2147483647.0000000,2147483647.0000000,2147483647.0,2147483647,2147483647,2147483647,2147483647,2147483647,2147483647,        0,        0,   0,   0,  23.1,  23.1,  23.1
6, 2363, 0,KQ4YGQ,    31.00, -39,   8,   -0.54, 101664.00,  -28.18,    3.98,    0.33, 31.2, 0.00, 0.00, 3.78,   9.84,  -0.05,  -0.73,   5.68,  15.14,  -1.22,   1.74,   0.53,  -3.76, 112.00, 3.77, 0.00, 0.00, 0.00, 0.00, 1, 0,  0,2147483647.0000000,2147483647.0000000,2147483647.0,2147483647,2147483647,2147483647,2147483647,2147483647,2147483647,        0,        0,   0,   0,  23.1,  23.1,  23.1
6, 2363, 0,KQ4YGQ,    31.83, -37,   9,   -0.54, 101659.00,  -27.77,    4.40,   -0.21, 31.2, 0.00, 0.00, 3.78,   9.74,  -0.02,  -0.97,   3.66,  -9.03,  -0.49,   1.74,   0.64,  -3.76, 114.00, 3.77, 0.00, 0.00, 0.00, 0.00, 1, 0,  0,2147483647.0000000,2147483647.0000000,2147483647.0,2147483647,2147483647,2147483647,2147483647,2147483647,2147483647,        0,        0,   0,   0,  23.1,  23.1,  23.1
6, 2363, 0,KQ4YGQ,    31.91, -38,   9,   -0.54, 101659.00,  -27.77,    4.40,   -0.21, 31.2, 0.00, 0.00, 3.77,   9.74,  -0.02,  -0.97,   3.66,  -9.03,  -0.49,   1.74,   0.64,  -3.76, 114.00, 3.77, 0.00, 0.00, 0.00, 0.00, 1, 0,  0,2147483647.0000000,2147483647.0000000,2147483647.0,2147483647,2147483647,2147483647,2147483647,2147483647,2147483647,        0,        0,   0,   0,  23.1,  23.1,  23.1
6, 2363, 0,KQ4YGQ,    32.00, -40,   8,   -0.54, 101659.00,  -27.77,    4.40,   -0.21, 31.2, 0.00, 0.00, 3.77,   9.74,  -0.02,  -0.97,   3.66,  -9.03,  -0.49,   1.74,   0.64,  -3.76, 114.00, 3.77, 0.00, 0.00, 0.00, 0.00, 1, 0,  0,2147483647.0000000,2147483647.0000000,2147483647.0,2147483647,2147483647,2147483647,2147483647,2147483647,2147483647,        0,        0,   0,   0,  23.1,  23.1,  23.1
6, 2363, 0,KQ4YGQ,    32.00, -40,   8,   -0.54, 101659.00,  -27.77,    4.40,   -0.21, 31.2, 0.00, 0.00, 3.77,   9.74,  -0.02,  -0.97,   3.66,  -9.03,  -0.49,   1.74,   0.64,  -3.76, 114.00, 3.77, 0.00, 0.00, 0.00, 0.00, 1, 0,  0,2147483647.0000000,2147483647.0000000,2147483647.0,2147483647,2147483647,2147483647,2147483647,2147483647,2147483647,        0,        0,   0,   0,  23.1,  23.1,  23.1
6, 2363, 0,KQ4YGQ,    33.04, -37,   7,   -0.54, 101659.00,  -27.77,    4.40,   -0.21, 31.2, 0.00, 0.00, 3.78,   9.74,  -0.02,  -0.97,   3.66,  -9.03,  -0.49,   1.74,   0.64,  -3.76, 114.00, 3.78, 0.00, 0.00, 0.00, 0.00, 1, 0,  0,2147483647.0000000,2147483647.0000000,2147483647.0,2147483647,2147483647,2147483647,2147483647,2147483647,2147483647,        0,        0,   0,   0,  23.1,  23.1,  23.1
6, 2363, 0,KQ4YGQ,    35.00, -31,   8,   -0.54, 101659.00,  -27.77,    4.40,   -0.21, 31.2, 0.00, 0.00, 3.78,   9.74,  -0.02,  -0.97,   3.66,  -9.03,  -0.49,   1.74,   0.64,  -3.76, 114.00, 3.78, 0.00, 0.00, 0.00, 0.00, 1, 0,  0,2147483647.0000000,2147483647.0000000,2147483647.0,2147483647,2147483647,2147483647,2147483647,2147483647,2147483647,        0,        0,   0,   0,  23.1,  23.1,  23.1
6, 2363, 0,KQ4YGQ,    35.00, -31,  11,   -0.54, 101659.00,  -27.77,    4.40,   -0.21, 31.2, 0.00, 0.00, 3.78,   9.74,  -0.02,  -0.97,   3.66,  -9.03,  -0.49,   1.74,   0.64,  -3.76, 114.00, 3.78, 0.00, 0.00, 0.00, 0.00, 1, 0,  0,2147483647.0000000,2147483647.0000000,2147483647.0,2147483647,2147483647,2147483647,2147483647,2147483647,2147483647,        0,        0,   0,   0,  23.1,  23.1,  23.1
6, 2363, 0,KQ4YGQ,    35.60, -37,   9,   -0.54, 101670.00,  -28.68,    3.49,    0.18, 31.3, 0.00, 0.00, 3.78,  10.12,  -5.55,   0.20,   1.71,   1.28,   0.00,   1.68,   0.54,  -3.76,  95.00, 3.78, 0.00, 0.00, 0.00, 0.00, 1, 0,  0,2147483647.0000000,2147483647.0000000,2147483647.0,2147483647,2147483647,2147483647,2147483647,2147483647,2147483647,        0,        0,   0,   0,  23.1,  23.1,  23.1
6, 2363, 0,KQ4YGQ,    35.68, -37,   6,   -0.54, 101670.00,  -28.68,    3.49,    0.18, 31.3, 0.00, 0.00, 3.78,  10.12,  -5.55,   0.20,   1.71,   1.28,   0.00,   1.68,   0.54,  -3.76,  95.00, 3.79, 0.00, 0.00, 0.00, 0.00, 1, 0,  0,2147483647.0000000,2147483647.0000000,2147483647.0,2147483647,2147483647,2147483647,2147483647,2147483647,2147483647,        0,        0,   0,   0,  23.1,  23.1,  23.1
6, 2363, 0,KQ4YGQ,    36.00, -31,   7,   -0.54, 101670.00,  -28.68,    3.49,    0.18, 31.3, 0.00, 0.00, 3.78,  10.12,  -5.55,   0.20,   1.71,   1.28,   0.00,   1.68,   0.54,  -3.76,  95.00, 3.79, 0.00, 0.00, 0.00, 0.00, 1, 0,  0,2147483647.0000000,2147483647.0000000,2147483647.0,2147483647,2147483647,2147483647,2147483647,2147483647,2147483647,        0,        0,   0,   0,  23.1,  23.1,  23.1
6, 2363, 0,KQ4YGQ,    36.00, -31,  10,   -0.54, 101670.00,  -28.68,    3.49,    0.18, 31.3, 0.00, 0.00, 3.78,  10.12,  -5.55,   0.20,   1.71,   1.28,   0.00,   1.68,   0.54,  -3.76,  95.00, 3.79, 0.00, 0.00, 0.00, 0.00, 1, 0,  0,2147483647.0000000,2147483647.0000000,2147483647.0,2147483647,2147483647,2147483647,2147483647,2147483647,2147483647,        0,        0,   0,   0,  23.1,  23.1,  23.1
6, 2363, 0,KQ4YGQ,    36.65, -31,  11,   -0.54, 101669.00,  -28.60,    3.57,    0.38, 31.3, 0.00, 0.00, 3.78,   9.92,  -0.13,   0.02,   1.34,  -2.93,   0.06,   1.71,   0.64,  -3.76,  95.00, 3.79, 0.00, 0.00, 0.00, 0.00, 1, 0,  0,2147483647.0000000,2147483647.0000000,2147483647.0,2147483647,2147483647,2147483647,2147483647,2147483647,2147483647,        0,        0,   0,   0,  23.1,  23.1,  23.1
6, 2363, 0,KQ4YGQ,    36.73, -31,   8,   -0.54, 101669.00,  -28.60,    3.57,    0.38, 31.3, 0.00, 0.00, 3.78,   9.92,  -0.13,   0.02,   1.34,  -2.93,   0.06,   1.71,   0.64,  -3.76,  95.00, 3.78, 0.00, 0.00, 0.00, 0.00, 1, 0,  0,2147483647.0000000,2147483647.0000000,2147483647.0,2147483647,2147483647,2147483647,2147483647,2147483647,2147483647,        0,        0,   0,   0,  23.1,  23.1,  23.1
6, 2363, 0,KQ4YGQ,    37.00, -31,   9,   -0.54, 101669.00,  -28.60,    3.57,    0.38, 31.3, 0.00, 0.00, 3.78,   9.92,  -0.13,   0.02,   1.34,  -2.93,   0.06,   1.71,   0.64,  -3.76,  95.00, 3.78, 0.00, 0.00, 0.00, 0.00, 1, 0,  0,2147483647.0000000,2147483647.0000000,2147483647.0,2147483647,2147483647,2147483647,2147483647,2147483647,2147483647,        0,        0,   0,   0,  23.1,  23.1,  23.1
6, 2363, 0,KQ4YGQ,    37.00, -31,   7,   -0.54, 101669.00,  -28.60,    3.57,    0.38, 31.3, 0.00, 0.00, 3.78,   9.92,  -0.13,   0.02,   1.34,  -2.93,   0.06,   1.71,   0.64,  -3.76,  95.00, 3.78, 0.00, 0.00, 0.00, 0.00, 1, 0,  0,2147483647.0000000,2147483647.0000000,2147483647.0,2147483647,2147483647,2147483647,2147483647,2147483647,2147483647,        0,        0,   0,   0,  23.1,  23.1,  23.1
6, 2363, 0,KQ4YGQ,    37.00, -31,   8,   -0.54, 101669.00,  -28.60,    3.57,    0.38, 31.3, 0.00, 0.00, 3.78,   9.92,  -0.13,   0.02,   1.34,  -2.93,   0.06,   1.71,   0.64,  -3.76,  95.00, 3.78, 0.00, 0.00, 0.00, 0.00, 1, 0,  0,2147483647.0000000,2147483647.0000000,2147483647.0,2147483647,2147483647,2147483647,2147483647,2147483647,2147483647,        0,        0,   0,   0,  23.1,  23.1,  23.1
6, 2363, 0,KQ4YGQ,    37.65, -31,   9,   -0.54, 101662.00,  -28.01,    4.15,    0.34, 31.3, 0.00, 0.00, 3.78,   9.87,  -0.07,   0.03,   1.65,   0.79,   0.24,   1.72,   0.66,  -3.76,  93.00, 3.78, 0.00, 0.00, 0.00, 0.00, 1, 0,  0,2147483647.0000000,2147483647.0000000,2147483647.0,2147483647,2147483647,2147483647,2147483647,2147483647,2147483647,        0,        0,   0,   0,  23.1,  23.1,  23.1
6, 2363, 0,KQ4YGQ,    37.73, -31,   9,   -0.54, 101662.00,  -28.01,    4.15,    0.34, 31.3, 0.00, 0.00, 3.78,   9.87,  -0.07,   0.03,   1.65,   0.79,   0.24,   1.72,   0.66,  -3.76,  93.00, 3.78, 0.00, 0.00, 0.00, 0.00, 1, 0,  0,2147483647.0000000,2147483647.0000000,2147483647.0,2147483647,2147483647,2147483647,2147483647,2147483647,2147483647,        0,        0,   0,   0,  23.1,  23.1,  23.1
6, 2363, 0,KQ4YGQ,    38.00, -33,   9,   -0.54, 101662.00,  -28.01,    4.15,    0.34, 31.3, 0.00, 0.00, 3.78,   9.87,  -0.07,   0.03,   1.65,   0.79,   0.24,   1.72,   0.66,  -3.76,  93.00, 3.78, 0.00, 0.00, 0.00, 0.00, 1, 0,  0,2147483647.0000000,2147483647.0000000,2147483647.0,2147483647,2147483647,2147483647,2147483647,2147483647,2147483647,        0,        0,   0,   0,  23.1,  23.1,  23.1
6, 2363, 0,KQ4YGQ,    38.00, -33,   9,   -0.54, 101662.00,  -28.01,    4.15,    0.34, 31.3, 0.00, 0.00, 3.78,   9.87,  -0.07,   0.03,   1.65,   0.79,   0.24,   1.72,   0.66,  -3.76,  93.00, 3.78, 0.00, 0.00, 0.00, 0.00, 1, 0,  0,2147483647.0000000,2147483647.0000000,2147483647.0,2147483647,2147483647,2147483647,2147483647,2147483647,2147483647,        0,        0,   0,   0,  23.1,  23.1,  23.1
6, 2363, 0,KQ4YGQ,    38.78, -34,   9,   -0.54, 101658.00,  -27.68,    4.48,    0.08, 31.3, 0.00, 0.00, 3.78,   9.92,  -0.11,   0.36,   5.07,   6.65,   0.37,   1.78,   0.72,  -3.76,  91.00, 3.78, 0.00, 0.00, 0.00, 0.00, 1, 0,  0,2147483647.0000000,2147483647.0000000,2147483647.0,2147483647,2147483647,2147483647,2147483647,2147483647,2147483647,        0,        0,   0,   0,  23.1,  23.1,  23.1
6, 2363, 0,KQ4YGQ,    38.86, -34,   9,   -0.54, 101658.00,  -27.68,    4.48,    0.08, 31.3, 0.00, 0.00, 3.77,   9.92,  -0.11,   0.36,   5.07,   6.65,   0.37,   1.78,   0.72,  -3.76,  91.00, 3.79, 0.00, 0.00, 0.00, 0.00, 1, 0,  0,2147483647.0000000,2147483647.0000000,2147483647.0,2147483647,2147483647,2147483647,2147483647,2147483647,2147483647,        0,        0,   0,   0,  23.1,  23.1,  23.1
6, 2363, 0,KQ4YGQ,    39.00, -32,   7,   -0.54, 101658.00,  -27.68,    4.48,    0.08, 31.3, 0.00, 0.00, 3.77,   9.92,  -0.11,   0.36,   5.07,   6.65,   0.37,   1.78,   0.72,  -3.76,  91.00, 3.79, 0.00, 0.00, 0.00, 0.00, 1, 0,  0,2147483647.0000000,2147483647.0000000,2147483647.0,2147483647,2147483647,2147483647,2147483647,2147483647,2147483647,        0,        0,   0,   0,  23.1,  23.1,  23.1
6, 2363, 0,KQ4YGQ,    39.00, -31,  14,   -0.54, 101658.00,  -27.68,    4.48,    0.08, 31.3, 0.00, 0.00, 3.77,   9.92,  -0.11,   0.36,   5.07,   6.65,   0.37,   1.78,   0.72,  -3.76,  91.00, 3.79, 0.00, 0.00, 0.00, 0.00, 1, 0,  0,2147483647.0000000,2147483647.0000000,2147483647.0,2147483647,2147483647,2147483647,2147483647,2147483647,2147483647,        0,        0,   0,   0,  23.1,  23.1,  23.1
6, 2363, 0,KQ4YGQ,    39.78, -32,   6,   -0.54, 101656.00,  -27.52,    4.65,    0.03, 31.2, 0.00, 0.00, 3.77,   9.91,  -0.15,   0.17,   1.34,  -6.04,   0.12,  -3.76,   0.89,  -3.76,  91.00, 3.79, 0.00, 0.00, 0.00, 0.00, 1, 0,  0,2147483647.0000000,2147483647.0000000,2147483647.0,2147483647,2147483647,2147483647,2147483647,2147483647,2147483647,        0,        0,   0,   0,  23.1,  23.1,  23.1
6, 2363, 0,KQ4YGQ,    39.86, -32,   9,   -0.54, 101656.00,  -27.52,    4.65,    0.03, 31.2, 0.00, 0.00, 3.77,   9.91,  -0.15,   0.17,   1.34,  -6.04,   0.12,  -3.76,   0.89,  -3.76,  91.00, 3.77, 0.00, 0.00, 0.00, 0.00, 1, 0,  0,2147483647.0000000,2147483647.0000000,2147483647.0,2147483647,2147483647,2147483647,2147483647,2147483647,2147483647,        0,        0,   0,   0,  23.1,  23.1,  23.1
6, 2363, 0,KQ4YGQ,    40.00, -31,   8,   -0.54, 101656.00,  -27.52,    4.65,    0.03, 31.2, 0.00, 0.00, 3.77,   9.91,  -0.15,   0.17,   1.34,  -6.04,   0.12,  -3.76,   0.89,  -3.76,  91.00, 3.77, 0.00, 0.00, 0.00, 0.00, 1, 0,  0,2147483647.0000000,2147483647.0000000,2147483647.0,2147483647,2147483647,2147483647,2147483647,2147483647,2147483647,        0,        0,   0,   0,  23.1,  23.1,  23.1
6, 2363, 0,KQ4YGQ,    40.00, -32,   7,   -0.54, 101656.00,  -27.52,    4.65,    0.03, 31.2, 0.00, 0.00, 3.77,   9.91,  -0.15,   0.17,   1.34,  -6.04,   0.12,  -3.76,   0.89,  -3.76,  91.00, 3.77, 0.00, 0.00, 0.00, 0.00, 1, 0,  0,2147483647.0000000,2147483647.0000000,2147483647.0,2147483647,2147483647,2147483647,2147483647,2147483647,2147483647,        0,        0,   0,   0,  23.1,  23.1,  23.1
6, 2363, 0,KQ4YGQ,    40.83, -32,   9,   -0.54, 101660.00,  -27.85,    4.32,    0.32, 31.2, 0.00, 0.00, 3.77,   9.91,  -0.15,   0.35,   1.22,  -6.10,   1.22,   1.84,   0.82,  -3.76,  89.00, 3.77, 0.00, 0.00, 0.00, 0.00, 1, 0,  0,2147483647.0000000,2147483647.0000000,2147483647.0,2147483647,2147483647,2147483647,2147483647,2147483647,2147483647,        0,        0,   0,   0,  23.1,  23.1,  23.1
6, 2363, 0,KQ4YGQ,    40.91, -32,   7,   -0.54, 101660.00,  -27.85,    4.32,    0.32, 31.2, 0.00, 0.00, 3.77,   9.91,  -0.15,   0.35,   1.22,  -6.10,   1.22,   1.84,   0.82,  -3.76,  89.00, 3.78, 0.00, 0.00, 0.00, 0.00, 1, 0,  0,2147483647.0000000,2147483647.0000000,2147483647.0,2147483647,2147483647,2147483647,2147483647,2147483647,2147483647,        0,        0,   0,   0,  23.1,  23.1,  23.1
6, 2363, 0,KQ4YGQ,    41.00, -31,   7,   -0.54, 101660.00,  -27.85,    4.32,    0.32, 31.2, 0.00, 0.00, 3.77,   9.91,  -0.15,   0.35,   1.22,  -6.10,   1.22,   1.84,   0.82,  -3.76,  89.00, 3.78, 0.00, 0.00, 0.00, 0.00, 1, 0,  0,2147483647.0000000,2147483647.0000000,2147483647.0,2147483647,2147483647,2147483647,2147483647,2147483647,2147483647,        0,        0,   0,   0,  23.1,  23.1,  23.1
6, 2363, 0,KQ4YGQ,    41.00, -31,   6,   -0.54, 101660.00,  -27.85,    4.32,    0.32, 31.2, 0.00, 0.00, 3.77,   9.91,  -0.15,   0.35,   1.22,  -6.10,   1.22,   1.84,   0.82,  -3.76,  89.00, 3.78, 0.00, 0.00, 0.00, 0.00, 1, 0,  0,2147483647.0000000,2147483647.0000000,2147483647.0,2147483647,2147483647,2147483647,2147483647,2147483647,2147483647,        0,        0,   0,   0,  23.1,  23.1,  23.1
6, 2363, 0,KQ4YGQ,    41.83, -31,   8,   -0.54, 101651.00,  -27.10,    5.06,    0.02, 31.2, 0.00, 0.00, 3.77,   9.89,  -0.13,   0.23,   1.71,  -1.40,  -0.06,  -3.76,   0.85,  -3.76,  89.00, 3.78, 0.00, 0.00, 0.00, 0.00, 1, 0,  0,2147483647.0000000,2147483647.0000000,2147483647.0,2147483647,2147483647,2147483647,2147483647,2147483647,2147483647,        0,        0,   0,   0,  23.1,  23.1,  23.1
6, 2363, 0,KQ4YGQ,    41.91, -31,   7,   -0.54, 101651.00,  -27.10,    5.06,    0.02, 31.2, 0.00, 0.00, 3.77,   9.89,  -0.13,   0.23,   1.71,  -1.40,  -0.06,  -3.76,   0.85,  -3.76,  89.00, 3.77, 0.00, 0.00, 0.00, 0.00, 1, 0,  0,2147483647.0000000,2147483647.0000000,2147483647.0,2147483647,2147483647,2147483647,2147483647,2147483647,2147483647,        0,        0,   0,   0,  23.1,  23.1,  23.1
6, 2363, 0,KQ4YGQ,    43.00, -34,   7,   -0.54, 101651.00,  -27.10,    5.06,    0.02, 31.2, 0.00, 0.00, 3.77,   9.89,  -0.13,   0.23,   1.71,  -1.40,  -0.06,  -3.76,   0.85,  -3.76,  89.00, 3.77, 0.00, 0.00, 0.00, 0.00, 1, 0,  0,2147483647.0000000,2147483647.0000000,2147483647.0,2147483647,2147483647,2147483647,2147483647,2147483647,2147483647,        0,        0,   0,   0,  23.1,  23.1,  23.1
6, 2363, 0,KQ4YGQ,    43.00, -34,   7,   -0.54, 101651.00,  -27.10,    5.06,    0.02, 31.2, 0.00, 0.00, 3.77,   9.89,  -0.13,   0.23,   1.71,  -1.40,  -0.06,  -3.76,   0.85,  -3.76,  89.00, 3.77, 0.00, 0.00, 0.00, 0.00, 1, 0,  0,2147483647.0000000,2147483647.0000000,2147483647.0,2147483647,2147483647,2147483647,2147483647,2147483647,2147483647,        0,        0,   0,   0,  23.1,  23.1,  23.1
6, 2363, 0,KQ4YGQ,    43.00, -35,   9,   -0.54, 101651.00,  -27.10,    5.06,    0.02, 31.2, 0.00, 0.00, 3.77,   9.89,  -0.13,   0.23,   1.71,  -1.40,  -0.06,  -3.76,   0.85,  -3.76,  89.00, 3.77, 0.00, 0.00, 0.00, 0.00, 1, 0,  0,2147483647.0000000,2147483647.0000000,2147483647.0,2147483647,2147483647,2147483647,2147483647,2147483647,2147483647,        0,        0,   0,   0,  23.1,  23.1,  23.1
6, 2363, 0,KQ4YGQ,    43.47, -34,   8,   -0.54, 101651.00,  -27.10,    5.06,    0.02, 31.2, 0.00, 0.00, 3.77,   9.89,  -0.13,   0.23,   1.71,  -1.40,  -0.06,  -3.76,   0.85,  -3.76,  89.00, 3.77, 0.00, 0.00, 0.00, 0.00, 1, 0,  0,2147483647.0000000,2147483647.0000000,2147483647.0,2147483647,2147483647,2147483647,2147483647,2147483647,2147483647,        0,        0,   0,   0,  23.1,  23.1,  23.1
6, 2363, 0,KQ4YGQ,    45.00, -34,   7,   -0.54, 101651.00,  -27.10,    5.06,    0.02, 31.2, 0.00, 0.00, 3.77,   9.89,  -0.13,   0.23,   1.71,  -1.40,  -0.06,  -3.76,   0.85,  -3.76,  89.00, 3.77, 0.00, 0.00, 0.00, 0.00, 1, 0,  0,2147483647.0000000,2147483647.0000000,2147483647.0,2147483647,2147483647,2147483647,2147483647,2147483647,2147483647,        0,        0,   0,   0,  23.1,  23.1,  23.1
6, 2363, 0,KQ4YGQ,    45.00, -34,   8,   -0.54, 101651.00,  -27.10,    5.06,    0.02, 31.2, 0.00, 0.00, 3.77,   9.89,  -0.13,   0.23,   1.71,  -1.40,  -0.06,  -3.76,   0.85,  -3.76,  89.00, 3.77, 0.00, 0.00, 0.00, 0.00, 1, 0,  0,2147483647.0000000,2147483647.0000000,2147483647.0,2147483647,2147483647,2147483647,2147483647,2147483647,2147483647,        0,        0,   0,   0,  23.1,  23.1,  23.1
6, 2363, 0,KQ4YGQ,    45.60, -34,   8,   -0.00, 101652.00,  -27.18,    4.98,    0.00, 31.3, 0.00, 0.00, 3.77,  10.05,   0.35,   0.66,  -0.73,   7.39,  -7.39,  -3.76,   1.31,  -0.01, 102.00, 3.77, 0.00, 0.00, 0.00, 0.00, 1, 0,  0,2147483647.0000000,2147483647.0000000,2147483647.0,2147483647,2147483647,2147483647,2147483647,2147483647,2147483647,        0,        0,   0,   0,  23.1,  23.1,  23.1
6, 2363, 0,KQ4YGQ,    45.68, -34,   8,   -0.00, 101652.00,  -27.18,    4.98,    0.00, 31.3, 0.00, 0.00, 3.77,  10.05,   0.35,   0.66,  -0.73,   7.39,  -7.39,  -3.76,   1.31,  -0.01, 102.00, 3.95, 0.00, 0.00, 0.00, 0.00, 1, 0,  0,2147483647.0000000,2147483647.0000000,2147483647.0,2147483647,2147483647,2147483647,2147483647,2147483647,2147483647,        0,        0,   0,   0,  23.1,  23.1,  23.1
6, 2363, 0,KQ4YGQ,    47.00, -32,   9,   -0.00, 101652.00,  -27.18,    4.98,    0.00, 31.3, 0.00, 0.00, 3.77,  10.05,   0.35,   0.66,  -0.73,   7.39,  -7.39,  -3.76,   1.31,  -0.01, 102.00, 3.95, 0.00, 0.00, 0.00, 0.00, 1, 0,  0,2147483647.0000000,2147483647.0000000,2147483647.0,2147483647,2147483647,2147483647,2147483647,2147483647,2147483647,        0,        0,   0,   0,  23.1,  23.1,  23.1
6, 2363, 0,KQ4YGQ,    47.00, -32,   9,   -0.00, 101652.00,  -27.18,    4.98,    0.00, 31.3, 0.00, 0.00, 3.77,  10.05,   0.35,   0.66,  -0.73,   7.39,  -7.39,  -3.76,   1.31,  -0.01, 102.00, 3.95, 0.00, 0.00, 0.00, 0.00, 1, 0,  0,2147483647.0000000,2147483647.0000000,2147483647.0,2147483647,2147483647,2147483647,2147483647,2147483647,2147483647,        0,        0,   0,   0,  23.1,  23.1,  23.1
6, 2363, 0,KQ4YGQ,    47.68, -33,  11,   -0.54, 101652.00,  -27.18,    4.98,   -0.14, 31.3, 0.00, 0.00, 3.77,   9.90,  -0.14,   0.42,   0.37,  -5.19,   0.61,  -3.76,   1.28,   0.27,  99.00, 3.95, 0.00, 0.00, 0.00, 0.00, 1, 0,  0,2147483647.0000000,2147483647.0000000,2147483647.0,2147483647,2147483647,2147483647,2147483647,2147483647,2147483647,        0,        0,   0,   0,  23.1,  23.1,  23.1
6, 2363, 0,KQ4YGQ,    47.76, -33,   7,   -0.54, 101652.00,  -27.18,    4.98,   -0.14, 31.3, 0.00, 0.00, 3.78,   9.90,  -0.14,   0.42,   0.37,  -5.19,   0.61,  -3.76,   1.28,   0.27,  99.00, 3.79, 0.00, 0.00, 0.00, 0.00, 1, 0,  0,2147483647.0000000,2147483647.0000000,2147483647.0,2147483647,2147483647,2147483647,2147483647,2147483647,2147483647,        0,        0,   0,   0,  23.1,  23.1,  23.1
6, 2363, 0,KQ4YGQ,    49.00, -35,  10,   -0.54, 101652.00,  -27.18,    4.98,   -0.14, 31.3, 0.00, 0.00, 3.78,   9.90,  -0.14,   0.42,   0.37,  -5.19,   0.61,  -3.76,   1.28,   0.27,  99.00, 3.79, 0.00, 0.00, 0.00, 0.00, 1, 0,  0,2147483647.0000000,2147483647.0000000,2147483647.0,2147483647,2147483647,2147483647,2147483647,2147483647,2147483647,        0,        0,   0,   0,  23.1,  23.1,  23.1
6, 2363, 0,KQ4YGQ,    49.00, -33,  11,   -0.54, 101652.00,  -27.18,    4.98,   -0.14, 31.3, 0.00, 0.00, 3.78,   9.90,  -0.14,   0.42,   0.37,  -5.19,   0.61,  -3.76,   1.28,   0.27,  99.00, 3.79, 0.00, 0.00, 0.00, 0.00, 1, 0,  0,2147483647.0000000,2147483647.0000000,2147483647.0,2147483647,2147483647,2147483647,2147483647,2147483647,2147483647,        0,        0,   0,   0,  23.1,  23.1,  23.1
6, 2363, 0,KQ4YGQ,    49.73, -34,  10,   -0.54, 101656.00,  -27.52,    4.65,   -0.04, 31.3, 0.00, 0.00, 3.78,   9.64,  -0.42,  -0.75, -29.73, -43.15,  -5.68,   1.80,   0.96,   0.60, 102.00, 3.79, 0.00, 0.00, 0.00, 0.00, 1, 0,  0,2147483647.0000000,2147483647.0000000,2147483647.0,2147483647,2147483647,2147483647,2147483647,2147483647,2147483647,        0,        0,   0,   0,  23.1,  23.1,  23.1
6, 2363, 0,KQ4YGQ,    49.81, -35,   9,   -0.54, 101656.00,  -27.52,    4.65,   -0.04, 31.3, 0.00, 0.00, 3.77,   9.64,  -0.42,  -0.75, -29.73, -43.15,  -5.68,   1.80,   0.96,   0.60, 102.00, 3.77, 0.00, 0.00, 0.00, 0.00, 1, 0,  0,2147483647.0000000,2147483647.0000000,2147483647.0,2147483647,2147483647,2147483647,2147483647,2147483647,2147483647,        0,        0,   0,   0,  23.1,  23.1,  23.1
6, 2363, 0,KQ4YGQ,    50.00, -32,   8,   -0.54, 101656.00,  -27.52,    4.65,   -0.04, 31.3, 0.00, 0.00, 3.77,   9.64,  -0.42,  -0.75, -29.73, -43.15,  -5.68,   1.80,   0.96,   0.60, 102.00, 3.77, 0.00, 0.00, 0.00, 0.00, 1, 0,  0,2147483647.0000000,2147483647.0000000,2147483647.0,2147483647,2147483647,2147483647,2147483647,2147483647,2147483647,        0,        0,   0,   0,  23.1,  23.1,  23.1
6, 2363, 0,KQ4YGQ,    50.00, -32,   9,   -0.54, 101656.00,  -27.52,    4.65,   -0.04, 31.3, 0.00, 0.00, 3.77,   9.64,  -0.42,  -0.75, -29.73, -43.15,  -5.68,   1.80,   0.96,   0.60, 102.00, 3.77, 0.00, 0.00, 0.00, 0.00, 1, 0,  0,2147483647.0000000,2147483647.0000000,2147483647.0,2147483647,2147483647,2147483647,2147483647,2147483647,2147483647,        0,        0,   0,   0,  23.1,  23.1,  23.1
6, 2363, 0,KQ4YGQ,    50.78, -32,   8,   -0.54, 101654.00,  -27.35,    4.81,   -0.36, 31.3, 0.00, 0.00, 3.77,   9.80,  -0.69,   0.69,   1.28,   2.87,  -0.73,  -3.76,   0.99,   0.63,  97.00, 3.77, 0.00, 0.00, 0.00, 0.00, 1, 0,  0,2147483647.0000000,2147483647.0000000,2147483647.0,2147483647,2147483647,2147483647,2147483647,2147483647,2147483647,        0,        0,   0,   0,  23.1,  23.1,  23.1
6, 2363, 0,KQ4YGQ,    50.86, -32,   9,   -0.54, 101654.00,  -27.35,    4.81,   -0.36, 31.3, 0.00, 0.00, 3.77,   9.80,  -0.69,   0.69,   1.28,   2.87,  -0.73,  -3.76,   0.99,   0.63,  97.00, 3.77, 0.00, 0.00, 0.00, 0.00, 1, 0,  0,2147483647.0000000,2147483647.0000000,2147483647.0,2147483647,2147483647,2147483647,2147483647,2147483647,2147483647,        0,        0,   0,   0,  23.1,  23.1,  23.1
6, 2363, 0,KQ4YGQ,    51.00, -31,   7,   -0.54, 101654.00,  -27.35,    4.81,   -0.36, 31.3, 0.00, 0.00, 3.77,   9.80,  -0.69,   0.69,   1.28,   2.87,  -0.73,  -3.76,   0.99,   0.63,  97.00, 3.77, 0.00, 0.00, 0.00, 0.00, 1, 0,  0,2147483647.0000000,2147483647.0000000,2147483647.0,2147483647,2147483647,2147483647,2147483647,2147483647,2147483647,        0,        0,   0,   0,  23.1,  23.1,  23.1
6, 2363, 0,KQ4YGQ,    51.00, -31,   9,   -0.54, 101654.00,  -27.35,    4.81,   -0.36, 31.3, 0.00, 0.00, 3.77,   9.80,  -0.69,   0.69,   1.28,   2.87,  -0.73,  -3.76,   0.99,   0.63,  97.00, 3.77, 0.00, 0.00, 0.00, 0.00, 1, 0,  0,2147483647.0000000,2147483647.0000000,2147483647.0,2147483647,2147483647,2147483647,2147483647,2147483647,2147483647,        0,        0,   0,   0,  23.1,  23.1,  23.1
6, 2363, 0,KQ4YGQ,    51.78, -31,   8,   -0.54, 101661.00,  -27.93,    4.23,    0.05, 31.3, 0.00, 0.00, 3.77,   9.83,  -0.57,   0.68,   1.46,  -2.56,   0.67,  -3.76,   0.99,   0.67,  96.00, 3.77, 0.00, 0.00, 0.00, 0.00, 1, 0,  0,2147483647.0000000,2147483647.0000000,2147483647.0,2147483647,2147483647,2147483647,2147483647,2147483647,2147483647,        0,        0,   0,   0,  23.1,  23.1,  23.1
6, 2363, 0,KQ4YGQ,    51.86, -31,   9,   -0.54, 101661.00,  -27.93,    4.23,    0.05, 31.3, 0.00, 0.00, 3.78,   9.83,  -0.57,   0.68,   1.46,  -2.56,   0.67,  -3.76,   0.99,   0.67,  96.00, 3.77, 0.00, 0.00, 0.00, 0.00, 1, 0,  0,2147483647.0000000,2147483647.0000000,2147483647.0,2147483647,2147483647,2147483647,2147483647,2147483647,2147483647,        0,        0,   0,   0,  23.1,  23.1,  23.1
6, 2363, 0,KQ4YGQ,    51.99, -30,  10,   -0.54, 101661.00,  -27.93,    4.23,    0.05, 31.3, 0.00, 0.00, 3.78,   9.83,  -0.57,   0.68,   1.46,  -2.56,   0.67,  -3.76,   0.99,   0.67,  96.00, 3.77, 0.00, 0.00, 0.00, 0.00, 1, 0,  0,2147483647.0000000,2147483647.0000000,2147483647.0,2147483647,2147483647,2147483647,2147483647,2147483647,2147483647,        0,        0,   0,   0,  23.1,  23.1,  23.1
6, 2363, 0,KQ4YGQ,    51.99, -30,   9,   -0.54, 101661.00,  -27.93,    4.23,    0.05, 31.3, 0.00, 0.00, 3.78,   9.83,  -0.57,   0.68,   1.46,  -2.56,   0.67,  -3.76,   0.99,   0.67,  96.00, 3.77, 0.00, 0.00, 0.00, 0.00, 1, 0,  0,2147483647.0000000,2147483647.0000000,2147483647.0,2147483647,2147483647,2147483647,2147483647,2147483647,2147483647,        0,        0,   0,   0,  23.1,  23.1,  23.1
6, 2363, 0,KQ4YGQ,    52.83, -31,   7,   -0.54, 101666.00,  -28.35,    3.82,    0.60, 31.3, 0.00, 0.00, 3.78,   9.90,  -0.66,   1.33,   0.49,  -4.15,   0.98,  -3.76,   0.94,   0.69,  95.00, 3.77, 0.00, 0.00, 0.00, 0.00, 1, 0,  0,2147483647.0000000,2147483647.0000000,2147483647.0,2147483647,2147483647,2147483647,2147483647,2147483647,2147483647,        0,        0,   0,   0,  23.1,  23.1,  23.1
6, 2363, 0,KQ4YGQ,    52.91, -31,   8,   -0.54, 101666.00,  -28.35,    3.82,    0.60, 31.3, 0.00, 0.00, 3.77,   9.90,  -0.66,   1.33,   0.49,  -4.15,   0.98,  -3.76,   0.94,   0.69,  95.00, 3.78, 0.00, 0.00, 0.00, 0.00, 1, 0,  0,2147483647.0000000,2147483647.0000000,2147483647.0,2147483647,2147483647,2147483647,2147483647,2147483647,2147483647,        0,        0,   0,   0,  23.1,  23.1,  23.1
6, 2363, 0,KQ4YGQ,    52.99, -30,   8,   -0.54, 101666.00,  -28.35,    3.82,    0.60, 31.3, 0.00, 0.00, 3.77,   9.90,  -0.66,   1.33,   0.49,  -4.15,   0.98,  -3.76,   0.94,   0.69,  95.00, 3.78, 0.00, 0.00, 0.00, 0.00, 1, 0,  0,2147483647.0000000,2147483647.0000000,2147483647.0,2147483647,2147483647,2147483647,2147483647,2147483647,2147483647,        0,        0,   0,   0,  23.1,  23.1,  23.1
6, 2363, 0,KQ4YGQ,    52.99, -30,   8,   -0.54, 101666.00,  -28.35,    3.82,    0.60, 31.3, 0.00, 0.00, 3.77,   9.90,  -0.66,   1.33,   0.49,  -4.15,   0.98,  -3.76,   0.94,   0.69,  95.00, 3.78, 0.00, 0.00, 0.00, 0.00, 1, 0,  0,2147483647.0000000,2147483647.0000000,2147483647.0,2147483647,2147483647,2147483647,2147483647,2147483647,2147483647,        0,        0,   0,   0,  23.1,  23.1,  23.1
6, 2363, 0,KQ4YGQ,    52.99, -31,   8,   -0.54, 101666.00,  -28.35,    3.82,    0.60, 31.3, 0.00, 0.00, 3.77,   9.90,  -0.66,   1.33,   0.49,  -4.15,   0.98,  -3.76,   0.94,   0.69,  95.00, 3.78, 0.00, 0.00, 0.00, 0.00, 1, 0,  0,2147483647.0000000,2147483647.0000000,2147483647.0,2147483647,2147483647,2147483647,2147483647,2147483647,2147483647,        0,        0,   0,   0,  23.1,  23.1,  23.1
6, 2363, 0,KQ4YGQ,    53.83, -30,   7,   -0.54, 101645.00,  -26.60,    5.56,   -0.18, 31.3, 0.00, 0.00, 3.77,   9.82,  -0.76,   0.95,   2.87,  -8.79,  -7.08,  -3.76,   0.92,   0.72,  95.00, 3.78, 0.00, 0.00, 0.00, 0.00, 1, 0,  0,2147483647.0000000,2147483647.0000000,2147483647.0,2147483647,2147483647,2147483647,2147483647,2147483647,2147483647,        0,        0,   0,   0,  23.1,  23.1,  23.1
6, 2363, 0,KQ4YGQ,    53.91, -30,   8,   -0.54, 101645.00,  -26.60,    5.56,   -0.18, 31.3, 0.00, 0.00, 3.77,   9.82,  -0.76,   0.95,   2.87,  -8.79,  -7.08,  -3.76,   0.92,   0.72,  95.00, 3.94, 0.00, 0.00, 0.00, 0.00, 1, 0,  0,2147483647.0000000,2147483647.0000000,2147483647.0,2147483647,2147483647,2147483647,2147483647,2147483647,2147483647,        0,        0,   0,   0,  23.1,  23.1,  23.1
6, 2363, 0,KQ4YGQ,    53.99, -24,   7,   -0.54, 101645.00,  -26.60,    5.56,   -0.18, 31.3, 0.00, 0.00, 3.77,   9.82,  -0.76,   0.95,   2.87,  -8.79,  -7.08,  -3.76,   0.92,   0.72,  95.00, 3.94, 0.00, 0.00, 0.00, 0.00, 1, 0,  0,2147483647.0000000,2147483647.0000000,2147483647.0,2147483647,2147483647,2147483647,2147483647,2147483647,2147483647,        0,        0,   0,   0,  23.1,  23.1,  23.1
6, 2363, 0,KQ4YGQ,    53.99, -24,  10,   -0.54, 101645.00,  -26.60,    5.56,   -0.18, 31.3, 0.00, 0.00, 3.77,   9.82,  -0.76,   0.95,   2.87,  -8.79,  -7.08,  -3.76,   0.92,   0.72,  95.00, 3.94, 0.00, 0.00, 0.00, 0.00, 1, 0,  0,2147483647.0000000,2147483647.0000000,2147483647.0,2147483647,2147483647,2147483647,2147483647,2147483647,2147483647,        0,        0,   0,   0,  23.1,  23.1,  23.1
6, 2363, 0,KQ4YGQ,    54.96, -24,   6,   -0.54, 101658.00,  -27.68,    4.48,    0.06, 31.3, 0.00, 0.00, 3.77,   9.85,  -0.46,  -0.03,   1.16, -17.27,   4.76,   1.70,   0.83,   0.77,  97.00, 3.94, 0.00, 0.00, 0.00, 0.00, 1, 0,  0,2147483647.0000000,2147483647.0000000,2147483647.0,2147483647,2147483647,2147483647,2147483647,2147483647,2147483647,        0,        0,   0,   0,  23.1,  23.1,  23.1
6, 2363, 0,KQ4YGQ,    55.04, -24,  12,   -0.54, 101658.00,  -27.68,    4.48,    0.06, 31.3, 0.00, 0.00, 3.77,   9.85,  -0.46,  -0.03,   1.16, -17.27,   4.76,   1.70,   0.83,   0.77,  97.00, 3.76, 0.00, 0.00, 0.00, 0.00, 1, 0,  0,2147483647.0000000,2147483647.0000000,2147483647.0,2147483647,2147483647,2147483647,2147483647,2147483647,2147483647,        0,        0,   0,   0,  23.1,  23.1,  23.1
6, 2363, 0,KQ4YGQ,    55.99, -24,   8,   -0.54, 101658.00,  -27.68,    4.48,    0.06, 31.3, 0.00, 0.00, 3.77,   9.85,  -0.46,  -0.03,   1.16, -17.27,   4.76,   1.70,   0.83,   0.77,  97.00, 3.76, 0.00, 0.00, 0.00, 0.00, 1, 0,  0,2147483647.0000000,2147483647.0000000,2147483647.0,2147483647,2147483647,2147483647,2147483647,2147483647,2147483647,        0,        0,   0,   0,  23.1,  23.1,  23.1
6, 2363, 0,KQ4YGQ,    55.99, -24,   9,   -0.54, 101658.00,  -27.68,    4.48,    0.06, 31.3, 0.00, 0.00, 3.77,   9.85,  -0.46,  -0.03,   1.16, -17.27,   4.76,   1.70,   0.83,   0.77,  97.00, 3.76, 0.00, 0.00, 0.00, 0.00, 1, 0,  0,2147483647.0000000,2147483647.0000000,2147483647.0,2147483647,2147483647,2147483647,2147483647,2147483647,2147483647,        0,        0,   0,   0,  23.1,  23.1,  23.1
6, 2363, 0,KQ4YGQ,    56.60, -24,   9,   -0.54, 101650.00,  -27.02,    5.15,   -0.37, 31.3, 0.00, 0.00, 3.77,  10.07,  -0.48,   0.07,   1.10,  -5.98,   0.24,   1.74,   0.85,   0.77,  94.00, 3.76, 0.00, 0.00, 0.00, 0.00, 1, 0,  0,2147483647.0000000,2147483647.0000000,2147483647.0,2147483647,2147483647,2147483647,2147483647,2147483647,2147483647,        0,        0,   0,   0,  23.1,  23.1,  23.1
6, 2363, 0,KQ4YGQ,    56.68, -24,   8,   -0.54, 101650.00,  -27.02,    5.15,   -0.37, 31.3, 0.00, 0.00, 3.78,  10.07,  -0.48,   0.07,   1.10,  -5.98,   0.24,   1.74,   0.85,   0.77,  94.00, 3.77, 0.00, 0.00, 0.00, 0.00, 1, 0,  0,2147483647.0000000,2147483647.0000000,2147483647.0,2147483647,2147483647,2147483647,2147483647,2147483647,2147483647,        0,        0,   0,   0,  23.1,  23.1,  23.1
6, 2363, 0,KQ4YGQ,    57.00, -25,  11,   -0.54, 101650.00,  -27.02,    5.15,   -0.37, 31.3, 0.00, 0.00, 3.78,  10.07,  -0.48,   0.07,   1.10,  -5.98,   0.24,   1.74,   0.85,   0.77,  94.00, 3.77, 0.00, 0.00, 0.00, 0.00, 1, 0,  0,2147483647.0000000,2147483647.0000000,2147483647.0,2147483647,2147483647,2147483647,2147483647,2147483647,2147483647,        0,        0,   0,   0,  23.1,  23.1,  23.1
6, 2363, 0,KQ4YGQ,    57.00, -25,   9,   -0.54, 101650.00,  -27.02,    5.15,   -0.37, 31.3, 0.00, 0.00, 3.78,  10.07,  -0.48,   0.07,   1.10,  -5.98,   0.24,   1.74,   0.85,   0.77,  94.00, 3.77, 0.00, 0.00, 0.00, 0.00, 1, 0,  0,2147483647.0000000,2147483647.0000000,2147483647.0,2147483647,2147483647,2147483647,2147483647,2147483647,2147483647,        0,        0,   0,   0,  23.1,  23.1,  23.1
6, 2363, 0,KQ4YGQ,    57.60, -25,   9,   -0.54, 101664.00,  -28.18,    3.98,    0.20, 31.4, 0.00, 0.00, 3.78,   9.90,  -0.57,   0.48,   0.55,   6.35,  -0.73,   1.82,   0.88,   0.79,  90.00, 3.77, 0.00, 0.00, 0.00, 0.00, 1, 0,  0,2147483647.0000000,2147483647.0000000,2147483647.0,2147483647,2147483647,2147483647,2147483647,2147483647,2147483647,        0,        0,   0,   0,  23.1,  23.1,  23.1
6, 2363, 0,KQ4YGQ,    57.68, -25,   8,   -0.54, 101664.00,  -28.18,    3.98,    0.20, 31.4, 0.00, 0.00, 3.77,   9.90,  -0.57,   0.48,   0.55,   6.35,  -0.73,   1.82,   0.88,   0.79,  90.00, 3.77, 0.00, 0.00, 0.00, 0.00, 1, 0,  0,2147483647.0000000,2147483647.0000000,2147483647.0,2147483647,2147483647,2147483647,2147483647,2147483647,2147483647,        0,        0,   0,   0,  23.1,  23.1,  23.1
6, 2363, 0,KQ4YGQ,    57.99, -25,   8,   -0.54, 101664.00,  -28.18,    3.98,    0.20, 31.4, 0.00, 0.00, 3.77,   9.90,  -0.57,   0.48,   0.55,   6.35,  -0.73,   1.82,   0.88,   0.79,  90.00, 3.77, 0.00, 0.00, 0.00, 0.00, 1, 0,  0,2147483647.0000000,2147483647.0000000,2147483647.0,2147483647,2147483647,2147483647,2147483647,2147483647,2147483647,        0,        0,   0,   0,  23.1,  23.1,  23.1
6, 2363, 0,KQ4YGQ,    57.99, -25,  10,   -0.54, 101664.00,  -28.18,    3.98,    0.20, 31.4, 0.00, 0.00, 3.77,   9.90,  -0.57,   0.48,   0.55,   6.35,  -0.73,   1.82,   0.88,   0.79,  90.00, 3.77, 0.00, 0.00, 0.00, 0.00, 1, 0,  0,2147483647.0000000,2147483647.0000000,2147483647.0,2147483647,2147483647,2147483647,2147483647,2147483647,2147483647,        0,        0,   0,   0,  23.1,  23.1,  23.1
6, 2363, 0,KQ4YGQ,    58.65, -25,   8,   -0.54, 101653.00,  -27.27,    4.90,    0.16, 31.4, 0.00, 0.00, 3.77,   9.82,  -0.60,   0.78,   1.59,  -0.06,  -0.49,   1.79,   0.79,   0.82,  87.00, 3.77, 0.00, 0.00, 0.00, 0.00, 1, 0,  0,2147483647.0000000,2147483647.0000000,2147483647.0,2147483647,2147483647,2147483647,2147483647,2147483647,2147483647,        0,        0,   0,   0,  23.1,  23.1,  23.1
6, 2363, 0,KQ4YGQ,    58.73, -25,   9,   -0.54, 101653.00,  -27.27,    4.90,    0.16, 31.4, 0.00, 0.00, 3.78,   9.82,  -0.60,   0.78,   1.59,  -0.06,  -0.49,   1.79,   0.79,   0.82,  87.00, 3.76, 0.00, 0.00, 0.00, 0.00, 1, 0,  0,2147483647.0000000,2147483647.0000000,2147483647.0,2147483647,2147483647,2147483647,2147483647,2147483647,2147483647,        0,        0,   0,   0,  23.1,  23.1,  23.1
6, 2363, 0,KQ4YGQ,    59.00, -25,   9,   -0.54, 101653.00,  -27.27,    4.90,    0.16, 31.4, 0.00, 0.00, 3.78,   9.82,  -0.60,   0.78,   1.59,  -0.06,  -0.49,   1.79,   0.79,   0.82,  87.00, 3.76, 0.00, 0.00, 0.00, 0.00, 1, 0,  0,2147483647.0000000,2147483647.0000000,2147483647.0,2147483647,2147483647,2147483647,2147483647,2147483647,2147483647,        0,        0,   0,   0,  23.1,  23.1,  23.1
6, 2363, 0,KQ4YGQ,    59.00, -25,   8,   -0.54, 101653.00,  -27.27,    4.90,    0.16, 31.4, 0.00, 0.00, 3.78,   9.82,  -0.60,   0.78,   1.59,  -0.06,  -0.49,   1.79,   0.79,   0.82,  87.00, 3.76, 0.00, 0.00, 0.00, 0.00, 1, 0,  0,2147483647.0000000,2147483647.0000000,2147483647.0,2147483647,2147483647,2147483647,2147483647,2147483647,2147483647,        0,        0,   0,   0,  23.1,  23.1,  23.1
6, 2363, 0,KQ4YGQ,    59.00, -25,  10,   -0.54, 101653.00,  -27.27,    4.90,    0.16, 31.4, 0.00, 0.00, 3.78,   9.82,  -0.60,   0.78,   1.59,  -0.06,  -0.49,   1.79,   0.79,   0.82,  87.00, 3.76, 0.00, 0.00, 0.00, 0.00, 1, 0,  0,2147483647.0000000,2147483647.0000000,2147483647.0,2147483647,2147483647,2147483647,2147483647,2147483647,2147483647,        0,        0,   0,   0,  23.1,  23.1,  23.1
6, 2363, 0,KQ4YGQ,    59.65, -25,   8,   -0.54, 101654.00,  -27.35,    4.81,   -0.13, 31.4, 0.00, 0.00, 3.78,   9.90,  -0.58,   1.17,   1.22,  -4.76,   0.98,   1.80,   0.80,   0.83,  85.00, 3.76, 0.00, 0.00, 0.00, 0.00, 1, 0,  0,2147483647.0000000,2147483647.0000000,2147483647.0,2147483647,2147483647,2147483647,2147483647,2147483647,2147483647,        0,        0,   0,   0,  23.1,  23.1,  23.1
6, 2363, 0,KQ4YGQ,    59.73, -25,   8,   -0.54, 101654.00,  -27.35,    4.81,   -0.13, 31.4, 0.00, 0.00, 3.77,   9.90,  -0.58,   1.17,   1.22,  -4.76,   0.98,   1.80,   0.80,   0.83,  85.00, 3.77, 0.00, 0.00, 0.00, 0.00, 1, 0,  0,2147483647.0000000,2147483647.0000000,2147483647.0,2147483647,2147483647,2147483647,2147483647,2147483647,2147483647,        0,        0,   0,   0,  23.1,  23.1,  23.1
6, 2363, 0,KQ4YGQ,    60.99, -36,   9,   -0.54, 101654.00,  -27.35,    4.81,   -0.13, 31.4, 0.00, 0.00, 3.77,   9.90,  -0.58,   1.17,   1.22,  -4.76,   0.98,   1.80,   0.80,   0.83,  85.00, 3.77, 0.00, 0.00, 0.00, 0.00, 1, 0,  0,2147483647.0000000,2147483647.0000000,2147483647.0,2147483647,2147483647,2147483647,2147483647,2147483647,2147483647,        0,        0,   0,   0,  23.1,  23.1,  23.1
6, 2363, 0,KQ4YGQ,    60.99, -37,   7,   -0.54, 101654.00,  -27.35,    4.81,   -0.13, 31.4, 0.00, 0.00, 3.77,   9.90,  -0.58,   1.17,   1.22,  -4.76,   0.98,   1.80,   0.80,   0.83,  85.00, 3.77, 0.00, 0.00, 0.00, 0.00, 1, 0,  0,2147483647.0000000,2147483647.0000000,2147483647.0,2147483647,2147483647,2147483647,2147483647,2147483647,2147483647,        0,        0,   0,   0,  23.1,  23.1,  23.1
6, 2363, 0,KQ4YGQ,    61.78, -36,   8,   -0.54, 101657.00,  -27.60,    4.57,    0.38, 31.4, 0.00, 0.00, 3.77,   9.87,  -1.10,  -0.29,   1.34, -38.76,   3.54,   1.64,   0.83,   0.57,  89.00, 3.77, 0.00, 0.00, 0.00, 0.00, 1, 0,  0,2147483647.0000000,2147483647.0000000,2147483647.0,2147483647,2147483647,2147483647,2147483647,2147483647,2147483647,        0,        0,   0,   0,  23.1,  23.1,  23.1
6, 2363, 0,KQ4YGQ,    61.86, -36,   9,   -0.54, 101657.00,  -27.60,    4.57,    0.38, 31.4, 0.00, 0.00, 3.77,   9.87,  -1.10,  -0.29,   1.34, -38.76,   3.54,   1.64,   0.83,   0.57,  89.00, 3.78, 0.00, 0.00, 0.00, 0.00, 1, 0,  0,2147483647.0000000,2147483647.0000000,2147483647.0,2147483647,2147483647,2147483647,2147483647,2147483647,2147483647,        0,        0,   0,   0,  23.1,  23.1,  23.1
6, 2363, 0,KQ4YGQ,    61.99, -26,   8,   -0.54, 101657.00,  -27.60,    4.57,    0.38, 31.4, 0.00, 0.00, 3.77,   9.87,  -1.10,  -0.29,   1.34, -38.76,   3.54,   1.64,   0.83,   0.57,  89.00, 3.78, 0.00, 0.00, 0.00, 0.00, 1, 0,  0,2147483647.0000000,2147483647.0000000,2147483647.0,2147483647,2147483647,2147483647,2147483647,2147483647,2147483647,        0,        0,   0,   0,  23.1,  23.1,  23.1
6, 2363, 0,KQ4YGQ,    61.99, -28,   9,   -0.54, 101657.00,  -27.60,    4.57,    0.38, 31.4, 0.00, 0.00, 3.77,   9.87,  -1.10,  -0.29,   1.34, -38.76,   3.54,   1.64,   0.83,   0.57,  89.00, 3.78, 0.00, 0.00, 0.00, 0.00, 1, 0,  0,2147483647.0000000,2147483647.0000000,2147483647.0,2147483647,2147483647,2147483647,2147483647,2147483647,2147483647,        0,        0,   0,   0,  23.1,  23.1,  23.1
6, 2363, 0,KQ4YGQ,    62.91, -25,  10,   -0.54, 101657.00,  -27.60,    4.57,    0.38, 31.4, 0.00, 0.00, 3.78,   9.87,  -1.10,  -0.29,   1.34, -38.76,   3.54,   1.64,   0.83,   0.57,  89.00, 3.95, 0.00, 0.00, 0.00, 0.00, 1, 0,  0,2147483647.0000000,2147483647.0000000,2147483647.0,2147483647,2147483647,2147483647,2147483647,2147483647,2147483647,        0,        0,   0,   0,  23.1,  23.1,  23.1
6, 2363, 0,KQ4YGQ,    62.99, -31,   7,   -0.54, 101657.00,  -27.60,    4.57,    0.38, 31.4, 0.00, 0.00, 3.78,   9.87,  -1.10,  -0.29,   1.34, -38.76,   3.54,   1.64,   0.83,   0.57,  89.00, 3.95, 0.00, 0.00, 0.00, 0.00, 1, 0,  0,2147483647.0000000,2147483647.0000000,2147483647.0,2147483647,2147483647,2147483647,2147483647,2147483647,2147483647,        0,        0,   0,   0,  23.1,  23.1,  23.1
6, 2363, 0,KQ4YGQ,    62.99, -31,   8,   -0.54, 101657.00,  -27.60,    4.57,    0.38, 31.4, 0.00, 0.00, 3.78,   9.87,  -1.10,  -0.29,   1.34, -38.76,   3.54,   1.64,   0.83,   0.57,  89.00, 3.95, 0.00, 0.00, 0.00, 0.00, 1, 0,  0,2147483647.0000000,2147483647.0000000,2147483647.0,2147483647,2147483647,2147483647,2147483647,2147483647,2147483647,        0,        0,   0,   0,  23.1,  23.1,  23.1
6, 2363, 0,KQ4YGQ,    63.83, -31,  12,   -0.00, 101648.00,  -26.85,    5.31,    0.23, 31.4, 0.00, 0.00, 3.78,  10.40,   2.35,  -1.32, -64.70,  54.51,   3.11,   0.20,  -0.08,   0.32, 100.00, 3.95, 0.00, 0.00, 0.00, 0.00, 1, 0,  0,2147483647.0000000,2147483647.0000000,2147483647.0,2147483647,2147483647,2147483647,2147483647,2147483647,2147483647,        0,        0,   0,   0,  23.1,  23.1,  23.1
6, 2363, 0,KQ4YGQ,    63.91, -31,   8,   -0.00, 101648.00,  -26.85,    5.31,    0.23, 31.4, 0.00, 0.00, 3.77,  10.40,   2.35,  -1.32, -64.70,  54.51,   3.11,   0.20,  -0.08,   0.32, 100.00, 3.78, 0.00, 0.00, 0.00, 0.00, 1, 0,  0,2147483647.0000000,2147483647.0000000,2147483647.0,2147483647,2147483647,2147483647,2147483647,2147483647,2147483647,        0,        0,   0,   0,  23.1,  23.1,  23.1
6, 2363, 0,KQ4YGQ,    64.99, -30,  10,   -0.00, 101648.00,  -26.85,    5.31,    0.23, 31.4, 0.00, 0.00, 3.77,  10.40,   2.35,  -1.32, -64.70,  54.51,   3.11,   0.20,  -0.08,   0.32, 100.00, 3.78, 0.00, 0.00, 0.00, 0.00, 1, 0,  0,2147483647.0000000,2147483647.0000000,2147483647.0,2147483647,2147483647,2147483647,2147483647,2147483647,2147483647,        0,        0,   0,   0,  23.1,  23.1,  23.1
6, 2363, 0,KQ4YGQ,    64.99, -30,   8,   -0.00, 101648.00,  -26.85,    5.31,    0.23, 31.4, 0.00, 0.00, 3.77,  10.40,   2.35,  -1.32, -64.70,  54.51,   3.11,   0.20,  -0.08,   0.32, 100.00, 3.78, 0.00, 0.00, 0.00, 0.00, 1, 0,  0,2147483647.0000000,2147483647.0000000,2147483647.0,2147483647,2147483647,2147483647,2147483647,2147483647,2147483647,        0,        0,   0,   0,  23.1,  23.1,  23.1
6, 2363, 0,KQ4YGQ,    64.99, -30,   7,   -0.00, 101648.00,  -26.85,    5.31,    0.23, 31.4, 0.00, 0.00, 3.77,  10.40,   2.35,  -1.32, -64.70,  54.51,   3.11,   0.20,  -0.08,   0.32, 100.00, 3.78, 0.00, 0.00, 0.00, 0.00, 1, 0,  0,2147483647.0000000,2147483647.0000000,2147483647.0,2147483647,2147483647,2147483647,2147483647,2147483647,2147483647,        0,        0,   0,   0,  23.1,  23.1,  23.1
6, 2363, 0,KQ4YGQ,    65.39, -29,   8,   -1.09, 101643.00,  -26.44,    5.73,   -0.14, 31.4, 0.00, 0.00, 3.77,   9.45,  -1.15,  -3.11,   1.22,  -2.87,   0.12,   0.18,  -0.11,   0.33,  96.00, 3.78, 0.00, 0.00, 0.00, 0.00, 1, 0,  0,2147483647.0000000,2147483647.0000000,2147483647.0,2147483647,2147483647,2147483647,2147483647,2147483647,2147483647,        0,        0,   0,   0,  23.1,  23.1,  23.1
6, 2363, 0,KQ4YGQ,    65.47, -29,   8,   -1.09, 101643.00,  -26.44,    5.73,   -0.14, 31.4, 0.00, 0.00, 3.77,   9.45,  -1.15,  -3.11,   1.22,  -2.87,   0.12,   0.18,  -0.11,   0.33,  96.00, 3.77, 0.00, 0.00, 0.00, 0.00, 1, 0,  0,2147483647.0000000,2147483647.0000000,2147483647.0,2147483647,2147483647,2147483647,2147483647,2147483647,2147483647,        0,        0,   0,   0,  23.1,  23.1,  23.1
6, 2363, 0,KQ4YGQ,    65.99, -29,   8,   -1.09, 101643.00,  -26.44,    5.73,   -0.14, 31.4, 0.00, 0.00, 3.77,   9.45,  -1.15,  -3.11,   1.22,  -2.87,   0.12,   0.18,  -0.11,   0.33,  96.00, 3.77, 0.00, 0.00, 0.00, 0.00, 1, 0,  0,2147483647.0000000,2147483647.0000000,2147483647.0,2147483647,2147483647,2147483647,2147483647,2147483647,2147483647,        0,        0,   0,   0,  23.1,  23.1,  23.1
6, 2363, 0,KQ4YGQ,    65.99, -29,   8,   -1.09, 101643.00,  -26.44,    5.73,   -0.14, 31.4, 0.00, 0.00, 3.77,   9.45,  -1.15,  -3.11,   1.22,  -2.87,   0.12,   0.18,  -0.11,   0.33,  96.00, 3.77, 0.00, 0.00, 0.00, 0.00, 1, 0,  0,2147483647.0000000,2147483647.0000000,2147483647.0,2147483647,2147483647,2147483647,2147483647,2147483647,2147483647,        0,        0,   0,   0,  23.1,  23.1,  23.1
6, 2363, 0,KQ4YGQ,    66.68, -30,   7,   -1.09, 101643.00,  -26.44,    5.73,   -0.14, 31.4, 0.00, 0.00, 3.78,   9.45,  -1.15,  -3.11,   1.22,  -2.87,   0.12,   0.18,  -0.11,   0.33,  96.00, 3.78, 0.00, 0.00, 0.00, 0.00, 1, 0,  0,2147483647.0000000,2147483647.0000000,2147483647.0,2147483647,2147483647,2147483647,2147483647,2147483647,2147483647,        0,        0,   0,   0,  23.1,  23.1,  23.1
6, 2363, 0,KQ4YGQ,    66.99, -30,   9,   -1.09, 101643.00,  -26.44,    5.73,   -0.14, 31.4, 0.00, 0.00, 3.78,   9.45,  -1.15,  -3.11,   1.22,  -2.87,   0.12,   0.18,  -0.11,   0.33,  96.00, 3.78, 0.00, 0.00, 0.00, 0.00, 1, 0,  0,2147483647.0000000,2147483647.0000000,2147483647.0,2147483647,2147483647,2147483647,2147483647,2147483647,2147483647,        0,        0,   0,   0,  23.1,  23.1,  23.1
6, 2363, 0,KQ4YGQ,    66.99, -30,   8,   -1.09, 101643.00,  -26.44,    5.73,   -0.14, 31.4, 0.00, 0.00, 3.78,   9.45,  -1.15,  -3.11,   1.22,  -2.87,   0.12,   0.18,  -0.11,   0.33,  96.00, 3.78, 0.00, 0.00, 0.00, 0.00, 1, 0,  0,2147483647.0000000,2147483647.0000000,2147483647.0,2147483647,2147483647,2147483647,2147483647,2147483647,2147483647,        0,        0,   0,   0,  23.1,  23.1,  23.1
6, 2363, 0,KQ4YGQ,    67.60, -30,   8,   -1.09, 101647.00,  -26.77,    5.40,   -0.52, 31.4, 0.00, 0.00, 3.78,   9.67, -12.94,  -3.03,   1.40,  -2.93,   0.00,   0.18,  -0.10,   0.34,  97.00, 3.78, 0.00, 0.00, 0.00, 0.00, 1, 0,  0,2147483647.0000000,2147483647.0000000,2147483647.0,2147483647,2147483647,2147483647,2147483647,2147483647,2147483647,        0,        0,   0,   0,  23.1,  23.1,  23.1
6, 2363, 0,KQ4YGQ,    67.68, -30,   9,   -1.09, 101647.00,  -26.77,    5.40,   -0.52, 31.4, 0.00, 0.00, 3.77,   9.67, -12.94,  -3.03,   1.40,  -2.93,   0.00,   0.18,  -0.10,   0.34,  97.00, 3.76, 0.00, 0.00, 0.00, 0.00, 1, 0,  0,2147483647.0000000,2147483647.0000000,2147483647.0,2147483647,2147483647,2147483647,2147483647,2147483647,2147483647,        0,        0,   0,   0,  23.1,  23.1,  23.1
6, 2363, 0,KQ4YGQ,    68.99, -30,   9,   -1.09, 101647.00,  -26.77,    5.40,   -0.52, 31.4, 0.00, 0.00, 3.77,   9.67, -12.94,  -3.03,   1.40,  -2.93,   0.00,   0.18,  -0.10,   0.34,  97.00, 3.76, 0.00, 0.00, 0.00, 0.00, 1, 0,  0,2147483647.0000000,2147483647.0000000,2147483647.0,2147483647,2147483647,2147483647,2147483647,2147483647,2147483647,        0,        0,   0,   0,  23.1,  23.1,  23.1
6, 2363, 0,KQ4YGQ,    68.99, -30,   9,   -1.09, 101647.00,  -26.77,    5.40,   -0.52, 31.4, 0.00, 0.00, 3.77,   9.67, -12.94,  -3.03,   1.40,  -2.93,   0.00,   0.18,  -0.10,   0.34,  97.00, 3.76, 0.00, 0.00, 0.00, 0.00, 1, 0,  0,2147483647.0000000,2147483647.0000000,2147483647.0,2147483647,2147483647,2147483647,2147483647,2147483647,2147483647,        0,        0,   0,   0,  23.1,  23.1,  23.1
6, 2363, 0,KQ4YGQ,    69.68, -30,   8,   -1.09, 101660.00,  -27.85,    4.32,    0.32, 31.4, 0.00, 0.00, 3.77,   9.39,  -0.21,  -3.04,   1.34,  -2.93,   0.00,   0.18,  -0.11,   0.33,  99.00, 3.76, 0.00, 0.00, 0.00, 0.00, 1, 0,  0,2147483647.0000000,2147483647.0000000,2147483647.0,2147483647,2147483647,2147483647,2147483647,2147483647,2147483647,        0,        0,   0,   0,  23.1,  23.1,  23.1
6, 2363, 0,KQ4YGQ,    69.76, -30,   8,   -1.09, 101660.00,  -27.85,    4.32,    0.32, 31.4, 0.00, 0.00, 3.77,   9.39,  -0.21,  -3.04,   1.34,  -2.93,   0.00,   0.18,  -0.11,   0.33,  99.00, 3.77, 0.00, 0.00, 0.00, 0.00, 1, 0,  0,2147483647.0000000,2147483647.0000000,2147483647.0,2147483647,2147483647,2147483647,2147483647,2147483647,2147483647,        0,        0,   0,   0,  23.1,  23.1,  23.1
6, 2363, 0,KQ4YGQ,    71.00, -30,   7,   -1.09, 101660.00,  -27.85,    4.32,    0.32, 31.4, 0.00, 0.00, 3.77,   9.39,  -0.21,  -3.04,   1.34,  -2.93,   0.00,   0.18,  -0.11,   0.33,  99.00, 3.77, 0.00, 0.00, 0.00, 0.00, 1, 0,  0,2147483647.0000000,2147483647.0000000,2147483647.0,2147483647,2147483647,2147483647,2147483647,2147483647,2147483647,        0,        0,   0,   0,  23.1,  23.1,  23.1
6, 2363, 0,KQ4YGQ,    71.00, -29,   8,   -1.09, 101660.00,  -27.85,    4.32,    0.32, 31.4, 0.00, 0.00, 3.77,   9.39,  -0.21,  -3.04,   1.34,  -2.93,   0.00,   0.18,  -0.11,   0.33,  99.00, 3.77, 0.00, 0.00, 0.00, 0.00, 1, 0,  0,2147483647.0000000,2147483647.0000000,2147483647.0,2147483647,2147483647,2147483647,2147483647,2147483647,2147483647,        0,        0,   0,   0,  23.1,  23.1,  23.1
6, 2363, 0,KQ4YGQ,    71.73, -30,  11,   -1.09, 101648.00,  -26.85,    5.31,   -0.85, 31.4, 0.00, 0.00, 3.77,   9.35,  -0.20,  -3.07,   1.28,  -2.93,  -0.12,   0.18,  -0.10,   0.33, 101.00, 3.77, 0.00, 0.00, 0.00, 0.00, 1, 0,  0,2147483647.0000000,2147483647.0000000,2147483647.0,2147483647,2147483647,2147483647,2147483647,2147483647,2147483647,        0,        0,   0,   0,  23.1,  23.1,  23.1
6, 2363, 0,KQ4YGQ,    71.81, -29,   9,   -1.09, 101648.00,  -26.85,    5.31,   -0.85, 31.4, 0.00, 0.00, 3.77,   9.35,  -0.20,  -3.07,   1.28,  -2.93,  -0.12,   0.18,  -0.10,   0.33, 101.00, 3.76, 0.00, 0.00, 0.00, 0.00, 1, 0,  0,2147483647.0000000,2147483647.0000000,2147483647.0,2147483647,2147483647,2147483647,2147483647,2147483647,2147483647,        0,        0,   0,   0,  23.1,  23.1,  23.1
6, 2363, 0,KQ4YGQ,    71.99, -30,   9,   -1.09, 101648.00,  -26.85,    5.31,   -0.85, 31.4, 0.00, 0.00, 3.77,   9.35,  -0.20,  -3.07,   1.28,  -2.93,  -0.12,   0.18,  -0.10,   0.33, 101.00, 3.76, 0.00, 0.00, 0.00, 0.00, 1, 0,  0,2147483647.0000000,2147483647.0000000,2147483647.0,2147483647,2147483647,2147483647,2147483647,2147483647,2147483647,        0,        0,   0,   0,  23.1,  23.1,  23.1
6, 2363, 0,KQ4YGQ,    71.99, -30,   8,   -1.09, 101648.00,  -26.85,    5.31,   -0.85, 31.4, 0.00, 0.00, 3.77,   9.35,  -0.20,  -3.07,   1.28,  -2.93,  -0.12,   0.18,  -0.10,   0.33, 101.00, 3.76, 0.00, 0.00, 0.00, 0.00, 1, 0,  0,2147483647.0000000,2147483647.0000000,2147483647.0,2147483647,2147483647,2147483647,2147483647,2147483647,2147483647,        0,        0,   0,   0,  23.1,  23.1,  23.1
6, 2363, 0,KQ4YGQ,    72.78, -30,   7,   -1.09, 101667.00,  -28.43,    3.74,   -0.35, 31.4, 0.00, 0.00, 3.77,   9.38,  -0.23,  -3.11,   1.34,  -2.87,  -0.06,   0.18,  -0.11,   0.33, 101.00, 3.76, 0.00, 0.00, 0.00, 0.00, 1, 0,  0,2147483647.0000000,2147483647.0000000,2147483647.0,2147483647,2147483647,2147483647,2147483647,2147483647,2147483647,        0,        0,   0,   0,  23.1,  23.1,  23.1
6, 2363, 0,KQ4YGQ,    72.86, -30,   8,   -1.09, 101667.00,  -28.43,    3.74,   -0.35, 31.4, 0.00, 0.00, 3.78,   9.38,  -0.23,  -3.11,   1.34,  -2.87,  -0.06,   0.18,  -0.11,   0.33, 101.00, 3.78, 0.00, 0.00, 0.00, 0.00, 1, 0,  0,2147483647.0000000,2147483647.0000000,2147483647.0,2147483647,2147483647,2147483647,2147483647,2147483647,2147483647,        0,        0,   0,   0,  23.1,  23.1,  23.1
6, 2363, 0,KQ4YGQ,    72.99, -30,  10,   -1.09, 101667.00,  -28.43,    3.74,   -0.35, 31.4, 0.00, 0.00, 3.78,   9.38,  -0.23,  -3.11,   1.34,  -2.87,  -0.06,   0.18,  -0.11,   0.33, 101.00, 3.78, 0.00, 0.00, 0.00, 0.00, 1, 0,  0,2147483647.0000000,2147483647.0000000,2147483647.0,2147483647,2147483647,2147483647,2147483647,2147483647,2147483647,        0,        0,   0,   0,  23.1,  23.1,  23.1
6, 2363, 0,KQ4YGQ,    72.99, -30,   8,   -1.09, 101667.00,  -28.43,    3.74,   -0.35, 31.4, 0.00, 0.00, 3.78,   9.38,  -0.23,  -3.11,   1.34,  -2.87,  -0.06,   0.18,  -0.11,   0.33, 101.00, 3.78, 0.00, 0.00, 0.00, 0.00, 1, 0,  0,2147483647.0000000,2147483647.0000000,2147483647.0,2147483647,2147483647,2147483647,2147483647,2147483647,2147483647,        0,        0,   0,   0,  23.1,  23.1,  23.1
6, 2363, 0,KQ4YGQ,    73.78, -31,  11,   -1.09, 101667.00,  -28.43,    3.74,    0.32, 31.4, 0.00, 0.00, 3.78,   9.38,  -0.22,  -3.06,   1.28,  -2.99,  -0.06,   0.18,  -0.10,   0.34, 102.00, 3.78, 0.00, 0.00, 0.00, 0.00, 1, 0,  0,2147483647.0000000,2147483647.0000000,2147483647.0,2147483647,2147483647,2147483647,2147483647,2147483647,2147483647,        0,        0,   0,   0,  23.1,  23.1,  23.1
6, 2363, 0,KQ4YGQ,    73.86, -30,   9,   -1.09, 101667.00,  -28.43,    3.74,    0.32, 31.4, 0.00, 0.00, 3.77,   9.38,  -0.22,  -3.06,   1.28,  -2.99,  -0.06,   0.18,  -0.10,   0.34, 102.00, 3.77, 0.00, 0.00, 0.00, 0.00, 1, 0,  0,2147483647.0000000,2147483647.0000000,2147483647.0,2147483647,2147483647,2147483647,2147483647,2147483647,2147483647,        0,        0,   0,   0,  23.1,  23.1,  23.1
6, 2363, 0,KQ4YGQ,    73.99, -34,   9,   -1.09, 101667.00,  -28.43,    3.74,    0.32, 31.4, 0.00, 0.00, 3.77,   9.38,  -0.22,  -3.06,   1.28,  -2.99,  -0.06,   0.18,  -0.10,   0.34, 102.00, 3.77, 0.00, 0.00, 0.00, 0.00, 1, 0,  0,2147483647.0000000,2147483647.0000000,2147483647.0,2147483647,2147483647,2147483647,2147483647,2147483647,2147483647,        0,        0,   0,   0,  23.1,  23.1,  23.1
6, 2363, 0,KQ4YGQ,    73.99, -34,  10,   -1.09, 101667.00,  -28.43,    3.74,    0.32, 31.4, 0.00, 0.00, 3.77,   9.38,  -0.22,  -3.06,   1.28,  -2.99,  -0.06,   0.18,  -0.10,   0.34, 102.00, 3.77, 0.00, 0.00, 0.00, 0.00, 1, 0,  0,2147483647.0000000,2147483647.0000000,2147483647.0,2147483647,2147483647,2147483647,2147483647,2147483647,2147483647,        0,        0,   0,   0,  23.1,  23.1,  23.1
6, 2363, 0,KQ4YGQ,    74.83, -34,   8,   -1.09, 101667.00,  -28.43,    3.74,    0.76, 31.4, 0.00, 0.00, 3.77,   9.32,  -0.08,  -3.01,   1.22,  -2.93,   0.00,   0.18,  -0.11,   0.34, 103.00, 3.77, 0.00, 0.00, 0.00, 0.00, 1, 0,  0,2147483647.0000000,2147483647.0000000,2147483647.0,2147483647,2147483647,2147483647,2147483647,2147483647,2147483647,        0,        0,   0,   0,  23.1,  23.1,  23.1
6, 2363, 0,KQ4YGQ,    74.91, -34,   7,   -1.09, 101667.00,  -28.43,    3.74,    0.76, 31.4, 0.00, 0.00, 3.77,   9.32,  -0.08,  -3.01,   1.22,  -2.93,   0.00,   0.18,  -0.11,   0.34, 103.00, 3.78, 0.00, 0.00, 0.00, 0.00, 1, 0,  0,2147483647.0000000,2147483647.0000000,2147483647.0,2147483647,2147483647,2147483647,2147483647,2147483647,2147483647,        0,        0,   0,   0,  23.1,  23.1,  23.1
6, 2363, 0,KQ4YGQ,    74.99, -33,   8,   -1.09, 101667.00,  -28.43,    3.74,    0.76, 31.4, 0.00, 0.00, 3.77,   9.32,  -0.08,  -3.01,   1.22,  -2.93,   0.00,   0.18,  -0.11,   0.34, 103.00, 3.78, 0.00, 0.00, 0.00, 0.00, 1, 0,  0,2147483647.0000000,2147483647.0000000,2147483647.0,2147483647,2147483647,2147483647,2147483647,2147483647,2147483647,        0,        0,   0,   0,  23.1,  23.1,  23.1
6, 2363, 0,KQ4YGQ,    74.99, -34,   9,   -1.09, 101667.00,  -28.43,    3.74,    0.76, 31.4, 0.00, 0.00, 3.77,   9.32,  -0.08,  -3.01,   1.22,  -2.93,   0.00,   0.18,  -0.11,   0.34, 103.00, 3.78, 0.00, 0.00, 0.00, 0.00, 1, 0,  0,2147483647.0000000,2147483647.0000000,2147483647.0,2147483647,2147483647,2147483647,2147483647,2147483647,2147483647,        0,        0,   0,   0,  23.1,  23.1,  23.1
6, 2363, 0,KQ4YGQ,    74.99, -34,   9,   -1.09, 101667.00,  -28.43,    3.74,    0.76, 31.4, 0.00, 0.00, 3.77,   9.32,  -0.08,  -3.01,   1.22,  -2.93,   0.00,   0.18,  -0.11,   0.34, 103.00, 3.78, 0.00, 0.00, 0.00, 0.00, 1, 0,  0,2147483647.0000000,2147483647.0000000,2147483647.0,2147483647,2147483647,2147483647,2147483647,2147483647,2147483647,        0,        0,   0,   0,  23.1,  23.1,  23.1
6, 2363, 0,KQ4YGQ,    75.83, -34,   9,   -0.54, 101650.00,  -27.02,    5.15,    0.40, 31.4, 0.00, 0.00, 3.77,   9.37,  -0.23,  -3.07,   1.71,  -2.87,   0.00,   0.18,  -0.10,   0.33,  95.00, 3.78, 0.00, 0.00, 0.00, 0.00, 1, 0,  0,2147483647.0000000,2147483647.0000000,2147483647.0,2147483647,2147483647,2147483647,2147483647,2147483647,2147483647,        0,        0,   0,   0,  23.1,  23.1,  23.1
6, 2363, 0,KQ4YGQ,    75.91, -34,   8,   -0.54, 101650.00,  -27.02,    5.15,    0.40, 31.4, 0.00, 0.00, 3.77,   9.37,  -0.23,  -3.07,   1.71,  -2.87,   0.00,   0.18,  -0.10,   0.33,  95.00, 3.77, 0.00, 0.00, 0.00, 0.00, 1, 0,  0,2147483647.0000000,2147483647.0000000,2147483647.0,2147483647,2147483647,2147483647,2147483647,2147483647,2147483647,        0,        0,   0,   0,  23.1,  23.1,  23.1
6, 2363, 0,KQ4YGQ,    75.99, -34,  10,   -0.54, 101650.00,  -27.02,    5.15,    0.40, 31.4, 0.00, 0.00, 3.77,   9.37,  -0.23,  -3.07,   1.71,  -2.87,   0.00,   0.18,  -0.10,   0.33,  95.00, 3.77, 0.00, 0.00, 0.00, 0.00, 1, 0,  0,2147483647.0000000,2147483647.0000000,2147483647.0,2147483647,2147483647,2147483647,2147483647,2147483647,2147483647,        0,        0,   0,   0,  23.1,  23.1,  23.1
6, 2363, 0,KQ4YGQ,    75.99, -34,   9,   -0.54, 101650.00,  -27.02,    5.15,    0.40, 31.4, 0.00, 0.00, 3.77,   9.37,  -0.23,  -3.07,   1.71,  -2.87,   0.00,   0.18,  -0.10,   0.33,  95.00, 3.77, 0.00, 0.00, 0.00, 0.00, 1, 0,  0,2147483647.0000000,2147483647.0000000,2147483647.0,2147483647,2147483647,2147483647,2147483647,2147483647,2147483647,        0,        0,   0,   0,  23.1,  23.1,  23.1
6, 2363, 0,KQ4YGQ,    76.96, -34,   8,   -0.54, 101648.00,  -26.85,    5.31,   -0.52, 31.4, 0.00, 0.00, 3.77,   9.38,  -0.21,  -3.10,   1.40,  -2.87,   0.06,   0.18,  -0.11,   0.33,  95.00, 3.77, 0.00, 0.00, 0.00, 0.00, 1, 0,  0,2147483647.0000000,2147483647.0000000,2147483647.0,2147483647,2147483647,2147483647,2147483647,2147483647,2147483647,        0,        0,   0,   0,  23.1,  23.1,  23.1
6, 2363, 0,KQ4YGQ,    77.04, -34,   8,   -0.54, 101648.00,  -26.85,    5.31,   -0.52, 31.4, 0.00, 0.00, 3.78,   9.38,  -0.21,  -3.10,   1.40,  -2.87,   0.06,   0.18,  -0.11,   0.33,  95.00, 3.79, 0.00, 0.00, 0.00, 0.00, 1, 0,  0,2147483647.0000000,2147483647.0000000,2147483647.0,2147483647,2147483647,2147483647,2147483647,2147483647,2147483647,        0,        0,   0,   0,  23.1,  23.1,  23.1
6, 2363, 0,KQ4YGQ,    78.99, -33,   9,   -0.54, 101648.00,  -26.85,    5.31,   -0.52, 31.4, 0.00, 0.00, 3.78,   9.38,  -0.21,  -3.10,   1.40,  -2.87,   0.06,   0.18,  -0.11,   0.33,  95.00, 3.79, 0.00, 0.00, 0.00, 0.00, 1, 0,  0,2147483647.0000000,2147483647.0000000,2147483647.0,2147483647,2147483647,2147483647,2147483647,2147483647,2147483647,        0,        0,   0,   0,  23.1,  23.1,  23.1
6, 2363, 0,KQ4YGQ,    78.99, -33,   9,   -0.54, 101648.00,  -26.85,    5.31,   -0.52, 31.4, 0.00, 0.00, 3.78,   9.38,  -0.21,  -3.10,   1.40,  -2.87,   0.06,   0.18,  -0.11,   0.33,  95.00, 3.79, 0.00, 0.00, 0.00, 0.00, 1, 0,  0,2147483647.0000000,2147483647.0000000,2147483647.0,2147483647,2147483647,2147483647,2147483647,2147483647,2147483647,        0,        0,   0,   0,  23.1,  23.1,  23.1
6, 2363, 0,KQ4YGQ,    79.60, -33,   8,   -0.54, 101665.00,  -28.26,    3.90,    0.27, 31.4, 0.00, 0.00, 3.78,   9.39,  -0.23,  -3.06,   1.34,  -2.81,  -0.06,   0.18,  -0.10,   0.35,  95.00, 3.79, 0.00, 0.00, 0.00, 0.00, 1, 0,  0,2147483647.0000000,2147483647.0000000,2147483647.0,2147483647,2147483647,2147483647,2147483647,2147483647,2147483647,        0,        0,   0,   0,  23.1,  23.1,  23.1
6, 2363, 0,KQ4YGQ,    79.68, -33,  10,   -0.54, 101665.00,  -28.26,    3.90,    0.27, 31.4, 0.00, 0.00, 3.77,   9.39,  -0.23,  -3.06,   1.34,  -2.81,  -0.06,   0.18,  -0.10,   0.35,  95.00, 3.78, 0.00, 0.00, 0.00, 0.00, 1, 0,  0,2147483647.0000000,2147483647.0000000,2147483647.0,2147483647,2147483647,2147483647,2147483647,2147483647,2147483647,        0,        0,   0,   0,  23.1,  23.1,  23.1
6, 2363, 0,KQ4YGQ,    80.99, -34,   7,   -0.54, 101665.00,  -28.26,    3.90,    0.27, 31.4, 0.00, 0.00, 3.77,   9.39,  -0.23,  -3.06,   1.34,  -2.81,  -0.06,   0.18,  -0.10,   0.35,  95.00, 3.78, 0.00, 0.00, 0.00, 0.00, 1, 0,  0,2147483647.0000000,2147483647.0000000,2147483647.0,2147483647,2147483647,2147483647,2147483647,2147483647,2147483647,        0,        0,   0,   0,  23.1,  23.1,  23.1
6, 2363, 0,KQ4YGQ,    80.99, -35,   6,   -0.54, 101665.00,  -28.26,    3.90,    0.27, 31.4, 0.00, 0.00, 3.77,   9.39,  -0.23,  -3.06,   1.34,  -2.81,  -0.06,   0.18,  -0.10,   0.35,  95.00, 3.78, 0.00, 0.00, 0.00, 0.00, 1, 0,  0,2147483647.0000000,2147483647.0000000,2147483647.0,2147483647,2147483647,2147483647,2147483647,2147483647,2147483647,        0,        0,   0,   0,  23.1,  23.1,  23.1
6, 2363, 0,KQ4YGQ,    80.99, -34,   8,   -0.54, 101665.00,  -28.26,    3.90,    0.27, 31.4, 0.00, 0.00, 3.77,   9.39,  -0.23,  -3.06,   1.34,  -2.81,  -0.06,   0.18,  -0.10,   0.35,  95.00, 3.78, 0.00, 0.00, 0.00, 0.00, 1, 0,  0,2147483647.0000000,2147483647.0000000,2147483647.0,2147483647,2147483647,2147483647,2147483647,2147483647,2147483647,        0,        0,   0,   0,  23.1,  23.1,  23.1
6, 2363, 0,KQ4YGQ,    81.65, -33,   9,   -0.54, 101659.00,  -27.77,    4.40,    0.24, 31.4, 0.00, 0.00, 3.77,   9.36,  -0.24,  -3.05,   1.34,  -2.87,   0.00,   0.18,  -0.10,   0.34,  95.00, 3.78, 0.00, 0.00, 0.00, 0.00, 1, 0,  0,2147483647.0000000,2147483647.0000000,2147483647.0,2147483647,2147483647,2147483647,2147483647,2147483647,2147483647,        0,        0,   0,   0,  23.1,  23.1,  23.1
6, 2363, 0,KQ4YGQ,    81.73, -34,  10,   -0.54, 101659.00,  -27.77,    4.40,    0.24, 31.4, 0.00, 0.00, 3.77,   9.36,  -0.24,  -3.05,   1.34,  -2.87,   0.00,   0.18,  -0.10,   0.34,  95.00, 3.77, 0.00, 0.00, 0.00, 0.00, 1, 0,  0,2147483647.0000000,2147483647.0000000,2147483647.0,2147483647,2147483647,2147483647,2147483647,2147483647,2147483647,        0,        0,   0,   0,  23.1,  23.1,  23.1
6, 2363, 0,KQ4YGQ,    81.99, -33,   9,   -0.54, 101659.00,  -27.77,    4.40,    0.24, 31.4, 0.00, 0.00, 3.77,   9.36,  -0.24,  -3.05,   1.34,  -2.87,   0.00,   0.18,  -0.10,   0.34,  95.00, 3.77, 0.00, 0.00, 0.00, 0.00, 1, 0,  0,2147483647.0000000,2147483647.0000000,2147483647.0,2147483647,2147483647,2147483647,2147483647,2147483647,2147483647,        0,        0,   0,   0,  23.1,  23.1,  23.1
6, 2363, 0,KQ4YGQ,    81.99, -33,   8,   -0.54, 101659.00,  -27.77,    4.40,    0.24, 31.4, 0.00, 0.00, 3.77,   9.36,  -0.24,  -3.05,   1.34,  -2.87,   0.00,   0.18,  -0.10,   0.34,  95.00, 3.77, 0.00, 0.00, 0.00, 0.00, 1, 0,  0,2147483647.0000000,2147483647.0000000,2147483647.0,2147483647,2147483647,2147483647,2147483647,2147483647,2147483647,        0,        0,   0,   0,  23.1,  23.1,  23.1
6, 2363, 0,KQ4YGQ,    82.78, -33,   7,   -0.54, 101655.00,  -27.43,    4.73,    0.34, 31.4, 0.00, 0.00, 3.77,   9.38,  -0.23,  -3.04,   1.34,  -2.87,   0.06,   0.18,  -0.11,   0.34,  95.00, 3.77, 0.00, 0.00, 0.00, 0.00, 1, 0,  0,2147483647.0000000,2147483647.0000000,2147483647.0,2147483647,2147483647,2147483647,2147483647,2147483647,2147483647,        0,        0,   0,   0,  23.1,  23.1,  23.1
6, 2363, 0,KQ4YGQ,    82.86, -33,   7,   -0.54, 101655.00,  -27.43,    4.73,    0.34, 31.4, 0.00, 0.00, 3.77,   9.38,  -0.23,  -3.04,   1.34,  -2.87,   0.06,   0.18,  -0.11,   0.34,  95.00, 3.78, 0.00, 0.00, 0.00, 0.00, 1, 0,  0,2147483647.0000000,2147483647.0000000,2147483647.0,2147483647,2147483647,2147483647,2147483647,2147483647,2147483647,        0,        0,   0,   0,  23.1,  23.1,  23.1
6, 2363, 0,KQ4YGQ,    82.99, -31,   9,   -0.54, 101655.00,  -27.43,    4.73,    0.34, 31.4, 0.00, 0.00, 3.77,   9.38,  -0.23,  -3.04,   1.34,  -2.87,   0.06,   0.18,  -0.11,   0.34,  95.00, 3.78, 0.00, 0.00, 0.00, 0.00, 1, 0,  0,2147483647.0000000,2147483647.0000000,2147483647.0,2147483647,2147483647,2147483647,2147483647,2147483647,2147483647,        0,        0,   0,   0,  23.1,  23.1,  23.1
6, 2363, 0,KQ4YGQ,    82.99, -31,  10,   -0.54, 101655.00,  -27.43,    4.73,    0.34, 31.4, 0.00, 0.00, 3.77,   9.38,  -0.23,  -3.04,   1.34,  -2.87,   0.06,   0.18,  -0.11,   0.34,  95.00, 3.78, 0.00, 0.00, 0.00, 0.00, 1, 0,  0,2147483647.0000000,2147483647.0000000,2147483647.0,2147483647,2147483647,2147483647,2147483647,2147483647,2147483647,        0,        0,   0,   0,  23.1,  23.1,  23.1
6, 2363, 0,KQ4YGQ,    83.78, -33,   6,   -0.54, 101652.00,  -27.18,    4.98,    0.56, 31.4, 0.00, 0.00, 3.77,   9.52,  -0.24,  -3.11,   1.16,  -3.05,  -0.18,   0.18,  -0.10,   0.34,  95.00, 3.78, 0.00, 0.00, 0.00, 0.00, 1, 0,  0,2147483647.0000000,2147483647.0000000,2147483647.0,2147483647,2147483647,2147483647,2147483647,2147483647,2147483647,        0,        0,   0,   0,  23.1,  23.1,  23.1
6, 2363, 0,KQ4YGQ,    83.86, -33,  12,   -0.54, 101652.00,  -27.18,    4.98,    0.56, 31.4, 0.00, 0.00, 3.77,   9.52,  -0.24,  -3.11,   1.16,  -3.05,  -0.18,   0.18,  -0.10,   0.34,  95.00, 3.94, 0.00, 0.00, 0.00, 0.00, 1, 0,  0,2147483647.0000000,2147483647.0000000,2147483647.0,2147483647,2147483647,2147483647,2147483647,2147483647,2147483647,        0,        0,   0,   0,  23.1,  23.1,  23.1
6, 2363, 0,KQ4YGQ,    83.99, -31,   7,   -0.54, 101652.00,  -27.18,    4.98,    0.56, 31.4, 0.00, 0.00, 3.77,   9.52,  -0.24,  -3.11,   1.16,  -3.05,  -0.18,   0.18,  -0.10,   0.34,  95.00, 3.94, 0.00, 0.00, 0.00, 0.00, 1, 0,  0,2147483647.0000000,2147483647.0000000,2147483647.0,2147483647,2147483647,2147483647,2147483647,2147483647,2147483647,        0,        0,   0,   0,  23.1,  23.1,  23.1
6, 2363, 0,KQ4YGQ,    83.99, -31,   8,   -0.54, 101652.00,  -27.18,    4.98,    0.56, 31.4, 0.00, 0.00, 3.77,   9.52,  -0.24,  -3.11,   1.16,  -3.05,  -0.18,   0.18,  -0.10,   0.34,  95.00, 3.94, 0.00, 0.00, 0.00, 0.00, 1, 0,  0,2147483647.0000000,2147483647.0000000,2147483647.0,2147483647,2147483647,2147483647,2147483647,2147483647,2147483647,        0,        0,   0,   0,  23.1,  23.1,  23.1
6, 2363, 0,KQ4YGQ,    84.83, -31,   9,   -0.54, 101644.00,  -26.52,    5.64,    0.35, 31.4, 0.00, 0.00, 3.77,   9.39,  -0.20,  -3.08,   1.34,  -2.99,   0.00,   0.18,  -0.11,   0.34,  95.00, 3.94, 0.00, 0.00, 0.00, 0.00, 1, 0,  0,2147483647.0000000,2147483647.0000000,2147483647.0,2147483647,2147483647,2147483647,2147483647,2147483647,2147483647,        0,        0,   0,   0,  23.1,  23.1,  23.1
6, 2363, 0,KQ4YGQ,    84.91, -31,   9,   -0.54, 101644.00,  -26.52,    5.64,    0.35, 31.4, 0.00, 0.00, 3.77,   9.39,  -0.20,  -3.08,   1.34,  -2.99,   0.00,   0.18,  -0.11,   0.34,  95.00, 3.78, 0.00, 0.00, 0.00, 0.00, 1, 0,  0,2147483647.0000000,2147483647.0000000,2147483647.0,2147483647,2147483647,2147483647,2147483647,2147483647,2147483647,        0,        0,   0,   0,  23.1,  23.1,  23.1
6, 2363, 0,KQ4YGQ,    84.99, -31,   7,   -0.54, 101644.00,  -26.52,    5.64,    0.35, 31.4, 0.00, 0.00, 3.77,   9.39,  -0.20,  -3.08,   1.34,  -2.99,   0.00,   0.18,  -0.11,   0.34,  95.00, 3.78, 0.00, 0.00, 0.00, 0.00, 1, 0,  0,2147483647.0000000,2147483647.0000000,2147483647.0,2147483647,2147483647,2147483647,2147483647,2147483647,2147483647,        0,        0,   0,   0,  23.1,  23.1,  23.1
6, 2363, 0,KQ4YGQ,    84.99, -31,   7,   -0.54, 101644.00,  -26.52,    5.64,    0.35, 31.4, 0.00, 0.00, 3.77,   9.39,  -0.20,  -3.08,   1.34,  -2.99,   0.00,   0.18,  -0.11,   0.34,  95.00, 3.78, 0.00, 0.00, 0.00, 0.00, 1, 0,  0,2147483647.0000000,2147483647.0000000,2147483647.0,2147483647,2147483647,2147483647,2147483647,2147483647,2147483647,        0,        0,   0,   0,  23.1,  23.1,  23.1
6, 2363, 0,KQ4YGQ,    85.83, -31,   7,   -0.54, 101636.00,  -25.86,    6.31,   -1.21, 31.4, 0.00, 0.00, 3.77,   9.37,  -0.20,  -3.05,   1.40,  -2.93,   0.00,   0.18,  -0.10,   0.34,  95.00, 3.78, 0.00, 0.00, 0.00, 0.00, 1, 0,  0,2147483647.0000000,2147483647.0000000,2147483647.0,2147483647,2147483647,2147483647,2147483647,2147483647,2147483647,        0,        0,   0,   0,  23.1,  23.1,  23.1
6, 2363, 0,KQ4YGQ,    85.91, -31,  10,   -0.54, 101636.00,  -25.86,    6.31,   -1.21, 31.4, 0.00, 0.00, 3.76,   9.37,  -0.20,  -3.05,   1.40,  -2.93,   0.00,   0.18,  -0.10,   0.34,  95.00, 3.77, 0.00, 0.00, 0.00, 0.00, 1, 0,  0,2147483647.0000000,2147483647.0000000,2147483647.0,2147483647,2147483647,2147483647,2147483647,2147483647,2147483647,        0,        0,   0,   0,  23.1,  23.1,  23.1
6, 2363, 0,KQ4YGQ,    86.99, -26,   9,   -0.54, 101636.00,  -25.86,    6.31,   -1.21, 31.4, 0.00, 0.00, 3.76,   9.37,  -0.20,  -3.05,   1.40,  -2.93,   0.00,   0.18,  -0.10,   0.34,  95.00, 3.77, 0.00, 0.00, 0.00, 0.00, 1, 0,  0,2147483647.0000000,2147483647.0000000,2147483647.0,2147483647,2147483647,2147483647,2147483647,2147483647,2147483647,        0,        0,   0,   0,  23.1,  23.1,  23.1
6, 2363, 0,KQ4YGQ,    86.99, -25,   9,   -0.54, 101636.00,  -25.86,    6.31,   -1.21, 31.4, 0.00, 0.00, 3.76,   9.37,  -0.20,  -3.05,   1.40,  -2.93,   0.00,   0.18,  -0.10,   0.34,  95.00, 3.77, 0.00, 0.00, 0.00, 0.00, 1, 0,  0,2147483647.0000000,2147483647.0000000,2147483647.0,2147483647,2147483647,2147483647,2147483647,2147483647,2147483647,        0,        0,   0,   0,  23.1,  23.1,  23.1
6, 2363, 0,KQ4YGQ,    86.99, -25,  10,   -0.54, 101636.00,  -25.86,    6.31,   -1.21, 31.4, 0.00, 0.00, 3.76,   9.37,  -0.20,  -3.05,   1.40,  -2.93,   0.00,   0.18,  -0.10,   0.34,  95.00, 3.77, 0.00, 0.00, 0.00, 0.00, 1, 0,  0,2147483647.0000000,2147483647.0000000,2147483647.0,2147483647,2147483647,2147483647,2147483647,2147483647,2147483647,        0,        0,   0,   0,  23.1,  23.1,  23.1
6, 2363, 0,KQ4YGQ,    87.39, -30,  10,   -0.00, 101664.00,  -28.18,    3.98,    0.39, 31.4, 0.00, 0.00, 3.76,   9.42,  -0.26,  -3.07,   1.16,  -3.11,  -0.18,   0.18,  -0.11,   0.34,  95.00, 3.77, 0.00, 0.00, 0.00, 0.00, 1, 0,  0,2147483647.0000000,2147483647.0000000,2147483647.0,2147483647,2147483647,2147483647,2147483647,2147483647,2147483647,        0,        0,   0,   0,  23.1,  23.1,  23.1
6, 2363, 0,KQ4YGQ,    87.47, -28,   9,   -0.00, 101664.00,  -28.18,    3.98,    0.39, 31.4, 0.00, 0.00, 3.77,   9.42,  -0.26,  -3.07,   1.16,  -3.11,  -0.18,   0.18,  -0.11,   0.34,  95.00, 3.78, 0.00, 0.00, 0.00, 0.00, 1, 0,  0,2147483647.0000000,2147483647.0000000,2147483647.0,2147483647,2147483647,2147483647,2147483647,2147483647,2147483647,        0,        0,   0,   0,  23.1,  23.1,  23.1
6, 2363, 0,KQ4YGQ,    87.99, -25,   7,   -0.00, 101664.00,  -28.18,    3.98,    0.39, 31.4, 0.00, 0.00, 3.77,   9.42,  -0.26,  -3.07,   1.16,  -3.11,  -0.18,   0.18,  -0.11,   0.34,  95.00, 3.78, 0.00, 0.00, 0.00, 0.00, 1, 0,  0,2147483647.0000000,2147483647.0000000,2147483647.0,2147483647,2147483647,2147483647,2147483647,2147483647,2147483647,        0,        0,   0,   0,  23.1,  23.1,  23.1
6, 2363, 0,KQ4YGQ,    87.99, -26,   8,   -0.00, 101664.00,  -28.18,    3.98,    0.39, 31.4, 0.00, 0.00, 3.77,   9.42,  -0.26,  -3.07,   1.16,  -3.11,  -0.18,   0.18,  -0.11,   0.34,  95.00, 3.78, 0.00, 0.00, 0.00, 0.00, 1, 0,  0,2147483647.0000000,2147483647.0000000,2147483647.0,2147483647,2147483647,2147483647,2147483647,2147483647,2147483647,        0,        0,   0,   0,  23.1,  23.1,  23.1
6, 2363, 0,KQ4YGQ,    88.68, -25,   8,   -0.00, 101664.00,  -28.18,    3.98,    0.39, 31.4, 0.00, 0.00, 3.77,   9.42,  -0.26,  -3.07,   1.16,  -3.11,  -0.18,   0.18,  -0.11,   0.34,  95.00, 3.77, 0.00, 0.00, 0.00, 0.00, 1, 0,  0,2147483647.0000000,2147483647.0000000,2147483647.0,2147483647,2147483647,2147483647,2147483647,2147483647,2147483647,        0,        0,   0,   0,  23.1,  23.1,  23.1
6, 2363, 0,KQ4YGQ,    89.00, -25,   9,   -0.00, 101664.00,  -28.18,    3.98,    0.39, 31.4, 0.00, 0.00, 3.77,   9.42,  -0.26,  -3.07,   1.16,  -3.11,  -0.18,   0.18,  -0.11,   0.34,  95.00, 3.77, 0.00, 0.00, 0.00, 0.00, 1, 0,  0,2147483647.0000000,2147483647.0000000,2147483647.0,2147483647,2147483647,2147483647,2147483647,2147483647,2147483647,        0,        0,   0,   0,  23.1,  23.1,  23.1
6, 2363, 0,KQ4YGQ,    89.00, -25,   8,   -0.00, 101664.00,  -28.18,    3.98,    0.39, 31.4, 0.00, 0.00, 3.77,   9.42,  -0.26,  -3.07,   1.16,  -3.11,  -0.18,   0.18,  -0.11,   0.34,  95.00, 3.77, 0.00, 0.00, 0.00, 0.00, 1, 0,  0,2147483647.0000000,2147483647.0000000,2147483647.0,2147483647,2147483647,2147483647,2147483647,2147483647,2147483647,        0,        0,   0,   0,  23.1,  23.1,  23.1
6, 2363, 0,KQ4YGQ,    89.60, -25,  10,   -0.00, 101652.00,  -27.18,    4.98,   -0.56, 31.4, 0.00, 0.00, 3.77,   9.35,  -0.23,  -3.11,   1.16,  -2.87,   0.00,   0.17,  -0.10,   0.33,  95.00, 3.77, 0.00, 0.00, 0.00, 0.00, 1, 0,  0,2147483647.0000000,2147483647.0000000,2147483647.0,2147483647,2147483647,2147483647,2147483647,2147483647,2147483647,        0,        0,   0,   0,  23.1,  23.1,  23.1
6, 2363, 0,KQ4YGQ,    89.68, -25,   8,   -0.00, 101652.00,  -27.18,    4.98,   -0.56, 31.4, 0.00, 0.00, 3.77,   9.35,  -0.23,  -3.11,   1.16,  -2.87,   0.00,   0.17,  -0.10,   0.33,  95.00, 3.77, 0.00, 0.00, 0.00, 0.00, 1, 0,  0,2147483647.0000000,2147483647.0000000,2147483647.0,2147483647,2147483647,2147483647,2147483647,2147483647,2147483647,        0,        0,   0,   0,  23.1,  23.1,  23.1
6, 2363, 0,KQ4YGQ,    89.99, -25,   8,   -0.00, 101652.00,  -27.18,    4.98,   -0.56, 31.4, 0.00, 0.00, 3.77,   9.35,  -0.23,  -3.11,   1.16,  -2.87,   0.00,   0.17,  -0.10,   0.33,  95.00, 3.77, 0.00, 0.00, 0.00, 0.00, 1, 0,  0,2147483647.0000000,2147483647.0000000,2147483647.0,2147483647,2147483647,2147483647,2147483647,2147483647,2147483647,        0,        0,   0,   0,  23.1,  23.1,  23.1
6, 2363, 0,KQ4YGQ,    89.99, -25,   9,   -0.00, 101652.00,  -27.18,    4.98,   -0.56, 31.4, 0.00, 0.00, 3.77,   9.35,  -0.23,  -3.11,   1.16,  -2.87,   0.00,   0.17,  -0.10,   0.33,  95.00, 3.77, 0.00, 0.00, 0.00, 0.00, 1, 0,  0,2147483647.0000000,2147483647.0000000,2147483647.0,2147483647,2147483647,2147483647,2147483647,2147483647,2147483647,        0,        0,   0,   0,  23.1,  23.1,  23.1
6, 2363, 0,KQ4YGQ,    91.00, -25,  10,   -0.00, 101652.00,  -27.18,    4.98,   -0.56, 31.4, 0.00, 0.00, 3.77,   9.35,  -0.23,  -3.11,   1.16,  -2.87,   0.00,   0.17,  -0.10,   0.33,  95.00, 3.77, 0.00, 0.00, 0.00, 0.00, 1, 0,  0,2147483647.0000000,2147483647.0000000,2147483647.0,2147483647,2147483647,2147483647,2147483647,2147483647,2147483647,        0,        0,   0,   0,  23.1,  23.1,  23.1
6, 2363, 0,KQ4YGQ,    91.00, -25,   9,   -0.00, 101652.00,  -27.18,    4.98,   -0.56, 31.4, 0.00, 0.00, 3.77,   9.35,  -0.23,  -3.11,   1.16,  -2.87,   0.00,   0.17,  -0.10,   0.33,  95.00, 3.77, 0.00, 0.00, 0.00, 0.00, 1, 0,  0,2147483647.0000000,2147483647.0000000,2147483647.0,2147483647,2147483647,2147483647,2147483647,2147483647,2147483647,        0,        0,   0,   0,  23.1,  23.1,  23.1
6, 2363, 0,KQ4YGQ,    91.68, -25,   8,   -0.00, 101668.00,  -28.51,    3.65,    0.42, 31.4, 0.00, 0.00, 3.77,   9.37,  -0.18,  -2.68,   1.28,  -2.99,   0.06,   0.18,  -0.11,   0.33,  95.00, 3.77, 0.00, 0.00, 0.00, 0.00, 1, 0,  0,2147483647.0000000,2147483647.0000000,2147483647.0,2147483647,2147483647,2147483647,2147483647,2147483647,2147483647,        0,        0,   0,   0,  23.1,  23.1,  23.1
6, 2363, 0,KQ4YGQ,    91.76, -25,   8,   -0.00, 101668.00,  -28.51,    3.65,    0.42, 31.4, 0.00, 0.00, 3.77,   9.37,  -0.18,  -2.68,   1.28,  -2.99,   0.06,   0.18,  -0.11,   0.33,  95.00, 3.76, 0.00, 0.00, 0.00, 0.00, 1, 0,  0,2147483647.0000000,2147483647.0000000,2147483647.0,2147483647,2147483647,2147483647,2147483647,2147483647,2147483647,        0,        0,   0,   0,  23.1,  23.1,  23.1
6, 2363, 0,KQ4YGQ,    91.99, -25,   8,   -0.00, 101668.00,  -28.51,    3.65,    0.42, 31.4, 0.00, 0.00, 3.77,   9.37,  -0.18,  -2.68,   1.28,  -2.99,   0.06,   0.18,  -0.11,   0.33,  95.00, 3.76, 0.00, 0.00, 0.00, 0.00, 1, 0,  0,2147483647.0000000,2147483647.0000000,2147483647.0,2147483647,2147483647,2147483647,2147483647,2147483647,2147483647,        0,        0,   0,   0,  23.1,  23.1,  23.1
6, 2363, 0,KQ4YGQ,    91.99, -25,   8,   -0.00, 101668.00,  -28.51,    3.65,    0.42, 31.4, 0.00, 0.00, 3.77,   9.37,  -0.18,  -2.68,   1.28,  -2.99,   0.06,   0.18,  -0.11,   0.33,  95.00, 3.76, 0.00, 0.00, 0.00, 0.00, 1, 0,  0,2147483647.0000000,2147483647.0000000,2147483647.0,2147483647,2147483647,2147483647,2147483647,2147483647,2147483647,        0,        0,   0,   0,  23.1,  23.1,  23.1
6, 2363, 0,KQ4YGQ,    91.99, -25,   8,   -0.00, 101668.00,  -28.51,    3.65,    0.42, 31.4, 0.00, 0.00, 3.77,   9.37,  -0.18,  -2.68,   1.28,  -2.99,   0.06,   0.18,  -0.11,   0.33,  95.00, 3.76, 0.00, 0.00, 0.00, 0.00, 1, 0,  0,2147483647.0000000,2147483647.0000000,2147483647.0,2147483647,2147483647,2147483647,2147483647,2147483647,2147483647,        0,        0,   0,   0,  23.1,  23.1,  23.1
6, 2363, 0,KQ4YGQ,    92.73, -25,   8,   -0.00, 101659.00,  -27.77,    4.40,    0.21, 31.4, 0.00, 0.00, 3.77,   9.39,  -0.20,  -3.05,   1.28,  -2.87,   0.06,   0.18,  -0.11,   0.34,  95.00, 3.76, 0.00, 0.00, 0.00, 0.00, 1, 0,  0,2147483647.0000000,2147483647.0000000,2147483647.0,2147483647,2147483647,2147483647,2147483647,2147483647,2147483647,        0,        0,   0,   0,  23.1,  23.1,  23.1
6, 2363, 0,KQ4YGQ,    92.81, -25,  10,   -0.00, 101659.00,  -27.77,    4.40,    0.21, 31.4, 0.00, 0.00, 3.78,   9.39,  -0.20,  -3.05,   1.28,  -2.87,   0.06,   0.18,  -0.11,   0.34,  95.00, 3.78, 0.00, 0.00, 0.00, 0.00, 1, 0,  0,2147483647.0000000,2147483647.0000000,2147483647.0,2147483647,2147483647,2147483647,2147483647,2147483647,2147483647,        0,        0,   0,   0,  23.1,  23.1,  23.1
6, 2363, 0,KQ4YGQ,    92.99, -25,   9,   -0.00, 101659.00,  -27.77,    4.40,    0.21, 31.4, 0.00, 0.00, 3.78,   9.39,  -0.20,  -3.05,   1.28,  -2.87,   0.06,   0.18,  -0.11,   0.34,  95.00, 3.78, 0.00, 0.00, 0.00, 0.00, 1, 0,  0,2147483647.0000000,2147483647.0000000,2147483647.0,2147483647,2147483647,2147483647,2147483647,2147483647,2147483647,        0,        0,   0,   0,  23.1,  23.1,  23.1
6, 2363, 0,KQ4YGQ,    92.99, -25,   9,   -0.00, 101659.00,  -27.77,    4.40,    0.21, 31.4, 0.00, 0.00, 3.78,   9.39,  -0.20,  -3.05,   1.28,  -2.87,   0.06,   0.18,  -0.11,   0.34,  95.00, 3.78, 0.00, 0.00, 0.00, 0.00, 1, 0,  0,2147483647.0000000,2147483647.0000000,2147483647.0,2147483647,2147483647,2147483647,2147483647,2147483647,2147483647,        0,        0,   0,   0,  23.1,  23.1,  23.1
6, 2363, 0,KQ4YGQ,    93.73, -25,   9,   -0.00, 101658.00,  -27.68,    4.48,    0.01, 31.4, 0.00, 0.00, 3.78,   9.38,  -0.22,  -3.07,   1.28,  -2.99,   0.00,   0.17,  -0.10,   0.34,  95.00, 3.78, 0.00, 0.00, 0.00, 0.00, 1, 0,  0,2147483647.0000000,2147483647.0000000,2147483647.0,2147483647,2147483647,2147483647,2147483647,2147483647,2147483647,        0,        0,   0,   0,  23.1,  23.1,  23.1
6, 2363, 0,KQ4YGQ,    93.81, -25,  11,   -0.00, 101658.00,  -27.68,    4.48,    0.01, 31.4, 0.00, 0.00, 3.77,   9.38,  -0.22,  -3.07,   1.28,  -2.99,   0.00,   0.17,  -0.10,   0.34,  95.00, 3.76, 0.00, 0.00, 0.00, 0.00, 1, 0,  0,2147483647.0000000,2147483647.0000000,2147483647.0,2147483647,2147483647,2147483647,2147483647,2147483647,2147483647,        0,        0,   0,   0,  23.1,  23.1,  23.1
6, 2363, 0,KQ4YGQ,    94.99, -25,  12,   -0.00, 101658.00,  -27.68,    4.48,    0.01, 31.4, 0.00, 0.00, 3.77,   9.38,  -0.22,  -3.07,   1.28,  -2.99,   0.00,   0.17,  -0.10,   0.34,  95.00, 3.76, 0.00, 0.00, 0.00, 0.00, 1, 0,  0,2147483647.0000000,2147483647.0000000,2147483647.0,2147483647,2147483647,2147483647,2147483647,2147483647,2147483647,        0,        0,   0,   0,  23.1,  23.1,  23.1
6, 2363, 0,KQ4YGQ,    94.99, -25,   9,   -0.00, 101658.00,  -27.68,    4.48,    0.01, 31.4, 0.00, 0.00, 3.77,   9.38,  -0.22,  -3.07,   1.28,  -2.99,   0.00,   0.17,  -0.10,   0.34,  95.00, 3.76, 0.00, 0.00, 0.00, 0.00, 1, 0,  0,2147483647.0000000,2147483647.0000000,2147483647.0,2147483647,2147483647,2147483647,2147483647,2147483647,2147483647,        0,        0,   0,   0,  23.1,  23.1,  23.1
6, 2363, 0,KQ4YGQ,    95.78, -25,  10,   -0.00, 101658.00,  -27.68,    4.48,   -0.18, 31.4, 0.00, 0.00, 3.77,   9.41,  -0.24,  -3.11,   1.34,  -2.87,  -0.06,   0.18,  -0.11,   0.35,  95.00, 3.76, 0.00, 0.00, 0.00, 0.00, 1, 0,  0,2147483647.0000000,2147483647.0000000,2147483647.0,2147483647,2147483647,2147483647,2147483647,2147483647,2147483647,        0,        0,   0,   0,  23.1,  23.1,  23.1
6, 2363, 0,KQ4YGQ,    95.86, -25,  10,   -0.00, 101658.00,  -27.68,    4.48,   -0.18, 31.4, 0.00, 0.00, 3.78,   9.41,  -0.24,  -3.11,   1.34,  -2.87,  -0.06,   0.18,  -0.11,   0.35,  95.00, 3.77, 0.00, 0.00, 0.00, 0.00, 1, 0,  0,2147483647.0000000,2147483647.0000000,2147483647.0,2147483647,2147483647,2147483647,2147483647,2147483647,2147483647,        0,        0,   0,   0,  23.1,  23.1,  23.1
6, 2363, 0,KQ4YGQ,    95.99, -25,   7,   -0.00, 101658.00,  -27.68,    4.48,   -0.18, 31.4, 0.00, 0.00, 3.78,   9.41,  -0.24,  -3.11,   1.34,  -2.87,  -0.06,   0.18,  -0.11,   0.35,  95.00, 3.77, 0.00, 0.00, 0.00, 0.00, 1, 0,  0,2147483647.0000000,2147483647.0000000,2147483647.0,2147483647,2147483647,2147483647,2147483647,2147483647,2147483647,        0,        0,   0,   0,  23.1,  23.1,  23.1
6, 2363, 0,KQ4YGQ,    95.99, -25,   7,   -0.00, 101658.00,  -27.68,    4.48,   -0.18, 31.4, 0.00, 0.00, 3.78,   9.41,  -0.24,  -3.11,   1.34,  -2.87,  -0.06,   0.18,  -0.11,   0.35,  95.00, 3.77, 0.00, 0.00, 0.00, 0.00, 1, 0,  0,2147483647.0000000,2147483647.0000000,2147483647.0,2147483647,2147483647,2147483647,2147483647,2147483647,2147483647,        0,        0,   0,   0,  23.1,  23.1,  23.1
6, 2363, 0,KQ4YGQ,    96.99, -25,   9,   -0.00, 101658.00,  -27.68,    4.48,   -0.18, 31.4, 0.00, 0.00, 3.78,   9.41,  -0.24,  -3.11,   1.34,  -2.87,  -0.06,   0.18,  -0.11,   0.35,  95.00, 3.77, 0.00, 0.00, 0.00, 0.00, 1, 0,  0,2147483647.0000000,2147483647.0000000,2147483647.0,2147483647,2147483647,2147483647,2147483647,2147483647,2147483647,        0,        0,   0,   0,  23.1,  23.1,  23.1
6, 2363, 0,KQ4YGQ,    96.99, -25,   9,   -0.00, 101658.00,  -27.68,    4.48,   -0.18, 31.4, 0.00, 0.00, 3.78,   9.41,  -0.24,  -3.11,   1.34,  -2.87,  -0.06,   0.18,  -0.11,   0.35,  95.00, 3.77, 0.00, 0.00, 0.00, 0.00, 1, 0,  0,2147483647.0000000,2147483647.0000000,2147483647.0,2147483647,2147483647,2147483647,2147483647,2147483647,2147483647,        0,        0,   0,   0,  23.1,  23.1,  23.1
6, 2363, 0,KQ4YGQ,    96.99, -25,   8,   -0.00, 101658.00,  -27.68,    4.48,   -0.18, 31.4, 0.00, 0.00, 3.78,   9.41,  -0.24,  -3.11,   1.34,  -2.87,  -0.06,   0.18,  -0.11,   0.35,  95.00, 3.77, 0.00, 0.00, 0.00, 0.00, 1, 0,  0,2147483647.0000000,2147483647.0000000,2147483647.0,2147483647,2147483647,2147483647,2147483647,2147483647,2147483647,        0,        0,   0,   0,  23.1,  23.1,  23.1
