acceleration_x,acceleration_y,acceleration_z,gyro_x,gyro_y,gyro_z,time_elapsed,rocket_state,rssi,signal_to_noise
31,-107,-973,840,-2310,-350,18391,1,-44,10.0
21,-121,-969,140,-1400,-420,18392,1,-40,11.0
16,-114,-960,840,-1890,-140,18393,1,-37,11.0
48,-108,-962,1260,-3430,-1330,18394,1,-40,11.0
37,-105,-968,840,-560,-140,18395,1,-47,10.0
3,-93,-962,0,420,-490,18396,1,-48,11.0
27,-116,-968,1540,-1400,-140,18397,1,-46,11.0
20,-102,-966,70,-1470,-630,18398,1,-42,11.0
24,-104,-968,910,-1680,0,18399,1,-43,10.0
30,-107,-975,-1540,-1330,-140,18400,1,-46,11.0
37,-108,-974,1260,-1890,-350,18401,1,-47,11.0
16,-91,-967,70,-1750,-770,18402,1,-44,11.0
42,-114,-966,560,-840,-1050,18403,1,-46,9.0
14,-98,-973,700,-2100,-420,18404,1,-41,11.0
48,-104,-967,3570,-770,770,18405,1,-43,11.0
23,-89,-970,420,-1190,-770,18406,1,-42,11.0
34,-83,-964,-700,140,210,18407,1,-39,11.0
24,-79,-977,770,-840,-280,18408,1,-47,11.0
9,-131,-962,350,-910,280,18409,1,-41,11.0
31,-88,-967,2100,-1540,-630,18410,1,-46,10.0
43,-112,-964,-2450,-1400,-1960,18411,1,-44,10.0
22,-94,-979,1120,-1890,770,18412,1,-41,11.0
45,-102,-966,2100,-2800,-210,18413,1,-43,11.0
31,-92,-975,1540,-2520,-140,18414,1,-49,11.0
59,-84,-971,980,1330,-1330,18415,1,-45,10.0
19,-129,-971,-2310,-6300,-1050,18416,1,-43,11.0
28,-99,-975,1400,-3430,-280,18417,1,-43,1.0
25,-104,-968,1190,-3080,-770,18418,1,-43,9.0
38,-73,-970,3780,-2940,0,18419,1,-49,5.0
2,-146,-968,-3640,-1820,-1470,18420,1,-42,1.0
-19,-151,-968,1120,-1260,630,18421,1,-40,7.0
55,-88,-976,840,1190,-700,18422,1,-33,-2.0
9,-133,-962,4900,-1960,-420,18423,1,-36,0.0
-31,-132,-962,1400,-2520,-2590,18424,1,-38,11.0
58,-132,-968,700,-2310,280,18425,1,-46,8.0
-24,-123,-962,3570,-1260,-350,18426,1,-38,11.0
17,-97,-956,1680,420,-1960,18427,1,-45,8.0
32,-66,-961,140,-770,140,18428,1,-36,11.0
42,-64,-988,-1750,-630,490,18429,1,-42,11.0
-7,-95,-962,-1260,-1190,1400,18430,1,-38,12.0
56,-129,-969,1050,280,-560,18431,1,-41,10.0
-13,-84,-976,2450,-700,1890,18432,1,-39,11.0
17,-94,-978,10780,7210,1750,18433,1,-39,11.0
39,-85,-970,-420,-770,840,18434,1,-45,11.0
15,-93,-969,1260,-3080,-1050,18435,1,-49,11.0
42,-111,-970,280,-3500,210,18436,1,-36,11.0
30,-106,-975,-140,-1470,1190,18437,1,-40,11.0
24,-115,-974,0,-2310,-770,18438,1,-40,10.0
19,-116,-971,0,-2590,-980,18439,1,-40,11.0
24,-109,-972,2940,1190,-2170,18440,1,-42,11.0
118,-140,-977,-560,280,-1610,18441,1,-44,11.0
45,-136,-964,10850,-5600,-280,18442,1,-44,11.0
85,-148,-978,2730,-4760,-700,18443,1,-43,11.0
33,-96,-966,1750,-350,-630,18444,1,-39,11.0
47,-107,-967,560,-1470,-420,18445,1,-40,11.0
63,-91,-974,2030,-3570,-140,18446,1,-46,11.0
26,-86,-968,-210,-1680,-770,18447,1,-44,10.0
32,-71,-965,2380,-3010,910,18448,1,-42,11.0
36,-89,-966,420,-1400,-490,18449,1,-44,11.0
39,-91,-975,-70,-1260,350,18450,1,-44,11.0
69,-123,-976,-700,-1470,-630,18451,1,-60,10.0
8,-72,-956,4270,-2310,420,18452,1,-56,11.0
51,-104,-976,1120,-1120,-630,18453,1,-46,11.0
27,-115,-967,-3780,-8470,-2590,18454,1,-45,11.0
29,-65,-973,-3920,-3010,-630,18455,1,-56,10.0
48,-80,-982,-700,-1890,840,18456,1,-44,11.0
42,-88,-975,7490,-3990,140,18457,1,-48,10.0
20,-108,-960,280,-1120,-2100,18458,1,-44,10.0
60,-115,-976,980,-1680,770,18459,1,-45,11.0
28,-95,-966,420,-2030,-1050,18460,1,-51,11.0
125,-40,-1015,9940,-3850,560,18461,1,-40,10.0
31,-120,-973,-6580,1960,-630,18462,1,-52,11.0
47,-129,-963,3290,-3080,280,18463,1,-47,11.0
31,-96,-965,-3010,-490,630,18464,1,-49,10.0
37,-106,-966,-560,-2380,70,18465,1,-49,11.0
69,-111,-969,1330,3290,350,18466,1,-36,10.0
64,-100,-979,-2170,5320,-490,18467,1,-42,11.0
45,-59,-970,-770,910,210,18468,1,-46,11.0
29,-91,-995,1960,-700,280,18469,1,-47,11.0
-14,-96,-974,2030,-3150,-770,18470,1,-50,10.0
41,-65,-980,-2170,-280,-910,18471,1,-51,11.0
0,-159,-958,420,-1470,70,18473,1,-54,10.0
15,-131,-963,2310,-2170,-1610,18474,1,-51,11.0
17,-171,-953,-770,-5880,210,18475,1,-49,10.0
90,-172,-971,-3290,-1960,-350,18476,1,-55,11.0
51,-131,-972,490,-490,-1050,18477,1,-53,11.0
11,-129,-966,2380,-210,0,18478,1,-54,11.0
11,-137,-965,-2380,770,-2520,18479,1,-50,11.0
10,-169,-939,1260,-5040,-2450,18480,1,-50,11.0
8,-128,-959,-1680,280,-840,18481,1,-45,11.0
56,-52,-957,-7980,1470,1680,18482,1,-50,11.0
8,-98,-960,-280,-1750,210,18483,1,-42,11.0
40,-122,-973,700,-700,-490,18484,1,-43,11.0
40,-137,-1006,4970,7910,-4200,18485,1,-44,11.0
44,-102,-984,-70,840,-4200,18486,1,-49,10.0
46,-136,-978,490,-2170,-1470,18487,1,-55,11.0
7,-79,-971,5600,-700,-490,18488,1,-51,11.0
15,-109,-975,2030,-2520,-840,18489,1,-50,11.0
28,-122,-966,1750,-1750,840,18490,1,-55,10.0
64,-197,-966,-14070,6090,980,18491,1,-42,11.0
34,-36,-969,490,-1190,770,18492,1,-46,10.0
30,-72,-979,2800,-3430,-1330,18493,1,-55,10.0
42,-61,-980,1400,-350,0,18494,1,-33,11.0
19,-80,-971,-700,-980,-1050,18495,1,-51,10.0
32,-96,-975,210,-1120,210,18496,1,-48,11.0
26,-141,-961,-490,-1540,-1400,18497,1,-38,10.0
105,-98,-970,3360,-7910,3220,18498,1,-41,11.0
53,-121,-973,560,-1820,-70,18499,1,-47,11.0
45,-104,-971,4410,-2940,140,18500,1,-39,11.0
46,-114,-976,1680,280,-140,18501,1,-58,11.0
38,-89,-972,-1610,-1820,-420,18502,1,-45,11.0
43,-102,-967,280,-1260,-280,18503,1,-47,10.0
40,-112,-969,1260,-420,-70,18504,1,-44,11.0
31,-89,-969,-1610,-910,350,18505,1,-39,11.0
19,-102,-964,560,-1610,-1190,18506,1,-48,11.0
17,-114,-968,0,-1190,-420,18507,1,-37,11.0
24,-114,-968,1680,-1330,-910,18508,1,-39,10.0
-14,-123,-988,560,280,-560,18509,1,-38,10.0
28,-105,-980,-840,-910,70,18510,1,-48,11.0
18,-102,-973,630,-1610,-490,18511,1,-46,11.0
51,-107,-971,980,-560,-1470,18512,1,-48,11.0
34,-98,-970,700,-1820,-770,18513,1,-45,11.0
31,-100,-963,2660,-7770,-4270,18514,1,-44,11.0
62,-116,-970,1890,-420,-700,18515,1,-42,11.0
53,-119,-983,5670,-770,-1750,18516,1,-46,11.0
-5,-109,-978,1330,-1400,560,18517,1,-42,11.0
60,-119,-976,3010,-5180,-1540,18518,1,-42,11.0
19,-119,-962,1680,-2310,350,18519,1,-43,11.0
9,-153,-966,-4410,1750,140,18520,1,-39,11.0
4,-132,-976,1120,-560,-490,18521,1,-40,11.0
6,-131,-970,2100,-1680,560,18522,1,-40,11.0
12,-98,-981,-70,-1400,-2450,18523,1,-42,11.0
5,-122,-971,-1890,-1400,-840,18524,1,-49,11.0
-52,-111,-958,1470,0,-1120,18525,1,-40,11.0
26,-114,-977,-210,-3920,280,18526,1,-39,11.0
14,-126,-962,1050,-1820,-490,18527,1,-38,11.0
10,-119,-964,700,-1680,-770,18528,1,-40,10.0
13,-131,-979,1190,-1960,-350,18529,1,-35,10.0
18,-127,-965,-350,-1190,-980,18530,1,-40,11.0
12,-110,-976,-630,-1190,-910,18531,1,-40,11.0
6,-114,-975,1750,210,-910,18532,1,-38,11.0
29,-113,-969,1680,-840,-630,18533,1,-43,11.0
9,-122,-970,910,-1820,-70,18534,1,-42,11.0
42,-89,-958,-140,-560,1050,18535,1,-39,11.0
17,-108,-973,1820,-1960,-1190,18536,1,-42,11.0
18,-67,-973,560,-700,-70,18537,1,-42,11.0
29,-75,-977,280,-1540,-700,18538,1,-42,11.0
63,-84,-966,3430,-2800,140,18539,1,-42,11.0
-43,60,-976,1330,-3710,-7840,18540,1,-44,11.0
26,-85,-973,-2590,-3220,980,18541,1,-42,11.0
31,-69,-967,1750,700,490,18542,1,-46,11.0
10,-153,-949,2310,-490,-1610,18543,1,-41,10.0
23,-94,-970,-1330,-700,350,18544,1,-40,11.0
85,-45,-982,3150,2870,-2100,18545,1,-42,11.0
155,-141,-998,20930,5950,-4270,18546,1,-47,12.0
56,-53,-970,-3010,-3780,6160,18547,1,-40,11.0
4,-32,-970,-3570,1190,7490,18548,1,-40,11.0
15,-70,-966,2870,-1960,-2800,18549,1,-46,10.0
50,-69,-983,3640,-700,210,18550,1,-44,11.0
45,-72,-958,2170,-4200,-210,18551,1,-42,11.0
94,-101,-980,-4060,-3080,1610,18552,1,-57,9.0
15,-96,-971,1540,0,-1260,18553,1,-56,10.0
15,-88,-974,2730,-1400,-1330,18554,1,-40,11.0
6,-110,-966,1820,-4900,-5670,18555,1,-47,10.0
38,-76,-975,-1050,1610,-140,18556,1,-48,10.0
12,-161,-961,2100,-1750,0,18557,1,-44,10.0
2,-165,-965,13930,-4620,2730,18558,1,-42,10.0
6,-111,-974,-2170,-630,2380,18559,1,-41,11.0
7,-117,-965,910,-1540,-910,18560,1,-60,10.0
2,-143,-960,770,-3010,-1540,18561,1,-52,11.0
-31,-75,-966,840,-1750,0,18562,1,-49,10.0
4,-128,-971,1190,0,-1120,18563,1,-46,11.0
-40,-151,-969,1820,210,630,18564,1,-49,10.0
22,-123,-974,-1540,-2030,1610,18565,1,-46,11.0
0,-140,-962,-2450,-2240,140,18566,1,-44,11.0
57,-141,-971,6160,-2240,-1050,18567,1,-50,11.0
-7,-110,-982,-5460,-3780,420,18568,1,-42,11.0
-4,-136,-952,-70,-7280,420,18569,1,-49,11.0
-42,-122,-970,1190,-1610,-980,18570,1,-41,11.0
0,-136,-954,1330,210,-770,18571,1,-48,11.0
-33,-137,-965,-1890,-490,-1330,18572,1,-45,12.0
1,-117,-955,1400,-280,-1330,18573,1,-45,11.0
0,-87,-987,5670,-4760,-1540,18574,1,-46,11.0
0,-122,-970,1120,-1540,-140,18575,1,-44,11.0
26,-163,-963,-280,-1470,-420,18576,1,-46,11.0
2,-105,-973,1400,-1750,-1820,18577,1,-43,10.0
-3,-126,-986,1960,-1750,-560,18578,1,-43,10.0
-1,-108,-964,2940,-280,-840,18579,1,-43,11.0
4,-145,-967,1190,-1470,-770,18580,1,-42,11.0
-7,-151,-975,4060,-3290,-1050,18581,1,-39,11.0
0,-131,-964,-140,-1050,-700,18582,1,-46,11.0
6,-137,-967,-980,3640,-70,18583,1,-35,11.0
0,-178,-960,-6020,-1890,-210,18584,1,-36,11.0
-17,-113,-976,-2660,-140,0,18585,1,-35,11.0
-8,-149,-963,-980,-1750,-630,18586,1,-38,11.0
3,-127,-972,1890,-1610,490,18587,1,-42,11.0
-9,-131,-968,910,-2170,-560,18588,1,-48,11.0
0,-128,-974,-210,-210,-420,18589,1,-49,11.0
-14,-135,-965,1120,-1750,-910,18590,1,-44,11.0
9,-105,-975,-490,-560,-280,18591,1,-38,11.0
16,-90,-973,2240,-1260,-4340,18592,1,-40,11.0
3,-106,-977,140,-630,1050,18593,1,-40,12.0
0,-159,-968,2310,-1190,1540,18594,1,-40,11.0
-19,-141,-966,2520,-1750,-910,18595,1,-47,10.0
-29,-144,-964,-2800,-280,3920,18596,1,-46,11.0
-3,-163,-956,700,-1540,-910,18597,1,-38,11.0
21,-148,-972,1050,-2730,490,18598,1,-43,11.0
6,-117,-973,1190,-2170,-1120,18599,1,-44,11.0
1,-113,-990,700,-1750,-910,18600,1,-41,11.0
6,-122,-956,4830,-2030,-6160,18601,1,-46,10.0
-8,-134,-963,1400,700,-1050,18602,1,-41,11.0
-4,-160,-963,420,-1330,140,18603,1,-45,11.0
-19,-142,-965,630,-630,-350,18604,1,-39,11.0
17,-142,-969,2730,-1750,-3920,18605,1,-43,10.0
43,-140,-985,2450,1540,-630,18606,1,-38,10.0
29,-144,-950,-280,840,980,18607,1,-40,11.0
1,-137,-980,840,-1190,-2660,18608,1,-37,10.0
-18,-155,-964,3150,-2590,-4760,18610,1,-41,12.0
2,-187,-939,6930,-2800,-840,18611,1,-45,11.0
53,-147,-971,-1750,-560,-3290,18612,1,-40,11.0
63,-102,-974,3220,-980,1540,18613,1,-47,10.0
9,-109,-971,1960,-1190,-2450,18614,1,-52,11.0
15,-112,-979,-980,-140,630,18615,1,-41,11.0
7,-134,-973,700,-1960,-1610,18616,1,-40,10.0
17,-126,-967,0,-140,-700,18617,1,-43,11.0
34,-140,-979,2800,-3430,1050,18618,1,-39,11.0
-17,-22,-926,-8890,-12670,1820,18619,1,-47,11.0
-145,-42,-956,-7070,18340,20020,18620,1,-43,11.0
-85,203,-967,5040,-3360,-5880,18621,1,-51,11.0
-100,4,-878,6020,2800,84700,18622,1,-46,11.0
148,104,-978,-11760,2660,54600,18623,1,-43,11.0
34,70,-926,-4690,-210,58730,18624,1,-50,10.0
129,88,-968,5460,-4900,-34930,18625,1,-51,11.0
169,-13,-983,-14140,-10010,-4830,18626,1,-59,11.0
66,-68,-930,-7770,7840,-1960,18627,1,-63,10.0
241,-333,-964,-27930,3150,-8260,18628,1,-55,11.0
-272,-915,-393,28770,-16520,980,18629,1,-47,11.0
-363,-919,165,20650,-3500,-2450,18630,1,-45,11.0
77,-129,941,33110,-10850,5950,18631,1,-46,11.0
34,-169,1011,6230,-4130,10430,18632,1,-46,11.0
80,-134,1022,4410,-4620,3150,18633,1,-41,11.0
134,17,952,-10640,-42210,-8820,18634,1,-41,12.0
-24,-26,1028,-4410,-1680,-840,18635,1,-47,10.0
-104,-91,985,-13090,9800,1750,18636,1,-45,11.0
-158,-8,980,-4410,-4550,1610,18637,1,-46,11.0
-122,-47,1024,1120,2310,-3780,18638,1,-47,11.0
-159,-86,1026,-4760,9940,8400,18639,1,-51,10.0
-116,32,1013,4830,-14070,-2170,18640,1,-44,11.0
-155,-102,1016,12950,21070,-11410,18641,1,-46,11.0
-149,-169,999,-12320,13650,-8820,18642,1,-48,11.0
-40,16,1058,-14630,-6650,4200,18643,1,-56,11.0
-128,-10,1014,-17500,11830,70840,18644,1,-51,11.0
96,110,1035,-15960,-2590,38010,18645,1,-59,10.0
-20,-82,963,-24920,-9100,22400,18646,1,-48,11.0
2,-40,988,18760,70,6370,18647,1,-45,11.0
-1,63,1087,25620,9240,-630,18648,1,-49,10.0
-32,111,1010,3990,-1960,-1190,18649,1,-57,11.0
44,83,1000,-1260,-14630,-1540,18650,1,-48,12.0
33,109,1016,4060,-1750,-280,18651,1,-47,10.0
3,0,1026,4760,-10990,-71050,18652,1,-51,10.0
-39,-70,1000,-4200,-2240,4060,18653,1,-47,11.0
-3,37,1026,-210,1190,0,18654,1,-54,11.0
-82,28,1013,3850,-700,-8750,18655,1,-45,11.0
0,-24,1022,2450,-2380,-1050,18656,1,-46,11.0
23,-50,939,-980,-700,3990,18657,1,-43,10.0
-21,-264,1500,216510,66780,16800,18658,1,-49,10.0
272,-81,978,-15470,-3850,3220,18659,1,-49,11.0
200,-127,987,1960,14630,-11970,18660,1,-57,11.0
160,-269,1004,7070,1540,-60550,18661,1,-53,10.0
128,-65,1005,59920,26110,-25200,18662,1,-47,11.0
-1,34,1067,700,-7140,-9940,18663,1,-58,11.0
-84,42,1022,-4760,-20440,-4690,18664,1,-52,11.0
89,41,964,9940,-6230,-4550,18665,1,-49,11.0
102,102,1014,-5180,-1680,6440,18666,1,-50,11.0
151,272,966,-6440,3710,280,18667,1,-45,11.0
-2,204,975,21910,-37800,-48930,18668,1,-56,8.0
-444,474,815,22120,16100,8890,18669,1,-70,0.0
-413,492,805,-8470,-9660,-84840,18670,1,-62,5.0
-586,-29,917,3360,2450,1260,18671,1,-53,11.0
-322,135,890,-12460,140,10080,18672,1,-61,11.0
-435,15,909,-5740,4270,-5950,18673,1,-55,11.0
-525,44,880,13930,-1330,5250,18674,1,-52,11.0
-481,-273,817,-7980,1750,-5950,18675,1,-53,12.0
-99,-71,1057,18130,-6650,-20580,18676,1,-49,11.0
-103,-18,1008,-13370,-1050,14420,18677,1,-49,11.0
-154,-188,996,4340,-1120,-6650,18678,1,-49,11.0
-161,-135,990,-3990,210,3500,18679,1,-46,11.0
-210,-97,986,3990,-4550,10500,18680,1,-56,11.0
-202,234,914,43190,-15400,-60340,18681,1,-59,10.0
-154,303,984,-9030,-2030,0,18682,1,-53,10.0
-128,290,992,1400,-5600,4130,18683,1,-49,11.0
-214,150,973,-7700,6860,-630,18684,1,-54,11.0
-285,93,963,-1540,-5320,-1330,18685,1,-54,10.0
-211,81,1012,700,4340,2520,18686,1,-60,9.0
-363,168,907,-7140,-17010,18340,18688,1,-44,11.0
-279,229,986,-4690,3430,-11830,18689,1,-55,11.0
-293,49,960,980,-9170,1050,18690,1,-53,11.0
-223,-40,982,4550,-2310,-3710,18691,1,-50,11.0
-283,7,979,2380,-1960,1750,18692,1,-49,11.0
-295,32,963,5180,-140,-2310,18693,1,-44,10.0
-279,19,961,8540,-3850,0,18694,1,-47,11.0
-348,-10,1017,-6510,-11200,12670,18695,1,-46,11.0
-364,73,925,-9730,-5110,13720,18696,1,-44,11.0
-209,418,882,-36540,-4900,47250,18697,1,-51,11.0
-283,269,972,11620,3080,-6020,18698,1,-56,11.0
-227,348,927,10850,-12180,-23590,18699,1,-57,11.0
-268,291,959,20020,-1750,-14700,18700,1,-60,10.0
-208,196,1048,-2590,0,2590,18702,1,-55,11.0
-224,63,991,18130,13930,6160,18703,1,-48,11.0
-98,251,1030,-28630,-37030,201950,18704,1,-62,10.0
159,259,945,3990,5600,5950,18705,1,-58,11.0
209,88,1015,-3290,-5040,-5530,18706,1,-53,11.0
82,43,951,-5180,-6160,-3990,18707,1,-57,10.0
-2,-10,1190,-14420,-3080,-3150,18708,1,-59,11.0
-65,22,1047,-13860,490,910,18709,1,-61,10.0
-40,97,1018,-21420,-12250,140,18710,1,-57,11.0
232,-6,991,-4340,14070,18130,18711,1,-57,11.0
487,-3,915,-17290,-28630,-18060,18712,1,-66,10.0
389,-245,865,-70000,-12250,-46200,18713,1,-52,11.0
279,-995,96,40950,-4410,57050,18714,1,-57,11.0
161,-1046,137,-7490,-6300,-7210,18715,1,-56,9.0
95,-1016,47,-560,-2030,-1050,18716,1,-46,11.0
66,-1019,61,490,-5180,-560,18717,1,-56,10.0
128,-951,60,6370,-53830,-980,18718,1,-58,9.0
79,-1008,71,6440,20860,-9800,18719,1,-67,4.0
74,-1003,84,-4970,-12040,-11690,18720,1,-58,10.0
-772,674,29,6440,-5600,45850,18721,1,-59,9.0
-565,798,88,1400,-980,-2800,18722,1,-52,10.0
-543,805,108,1680,-910,-700,18723,1,-62,11.0
-548,794,84,-3220,-490,1190,18724,1,-65,10.0
-535,808,51,70,-280,-1190,18725,1,-58,11.0
-608,834,60,10010,-9800,3500,18726,1,-59,11.0
-550,823,71,-490,-1330,1680,18727,1,-52,10.0
-505,865,60,3990,-1260,980,18728,1,-51,11.0
-490,822,126,770,2380,-7210,18729,1,-50,-7.0
-525,848,78,2520,-1540,3220,18730,1,-62,10.0
-492,866,41,2100,-770,-1750,18731,1,-51,11.0
-488,837,50,1330,-1750,-770,18732,1,-60,8.0
-507,859,37,3220,-3150,-6440,18733,1,-70,10.0
-530,812,24,-8260,5950,-490,18734,1,-60,11.0
-492,809,119,2520,-5250,-420,18735,1,-63,10.0
-607,915,67,-5950,-2590,4830,18736,1,-54,11.0
-451,873,39,7560,12950,1120,18737,1,-67,11.0
-537,812,66,-2520,-3990,-70,18738,1,-57,10.0
-544,836,89,-560,-2240,-630,18739,1,-50,11.0
-541,826,85,210,-1750,-1470,18740,1,-51,11.0
-547,817,85,1960,-770,980,18741,1,-48,11.0
-539,817,78,1050,-1610,-140,18742,1,-54,11.0
-513,827,78,-420,-1680,-2730,18743,1,-46,11.0
-494,793,69,3150,-4060,140,18744,1,-55,9.0
-513,837,60,1820,-2730,-630,18745,1,-55,11.0
-530,842,41,-1050,-7420,3150,18746,1,-50,10.0
-507,854,87,-1400,-1540,-2660,18747,1,-48,11.0
-511,847,79,-1190,-3850,-1400,18748,1,-50,12.0
-521,829,85,840,-2800,1400,18749,1,-51,11.0
-492,783,80,2730,1260,630,18750,1,-46,11.0
-422,866,140,4620,6440,-17500,18751,1,-53,11.0
-313,949,22,-5180,-5250,910,18752,1,-46,11.0
-218,897,29,-8890,-10290,24010,18753,1,-50,11.0
-159,61,868,-48650,-8120,33810,18754,1,-45,11.0
-308,18,1003,-210,7840,7350,18755,1,-64,11.0
-408,247,970,22260,-35560,-4340,18756,1,-58,10.0
-217,57,1041,-5880,-23660,91140,18757,1,-54,11.0
159,121,957,-5040,-21280,-3290,18758,1,-53,11.0
226,81,1014,20440,29470,4760,18759,1,-44,11.0
-12,50,997,-3850,10290,21770,18760,1,-53,11.0
-21,55,1026,-7840,-5390,-4410,18761,1,-55,11.0
-62,-132,994,5740,5040,9730,18762,1,-55,10.0
-12,-15,1021,-1050,210,-3500,18763,1,-55,11.0
-65,19,988,1190,-2100,-43750,18764,1,-51,11.0
-45,4,1020,910,-1820,3080,18765,1,-55,11.0
-57,8,1018,-70,-2450,-5110,18766,1,-65,11.0
-38,-20,1106,-70,630,24360,18767,1,-58,11.0
-74,36,948,7560,3290,-15190,18768,1,-57,11.0
-111,-120,1071,5880,-5530,11760,18769,1,-52,11.0
-56,34,992,2590,-3430,-7630,18770,1,-55,11.0
-7,3,992,700,-140,-3150,18771,1,-59,10.0
-50,82,1013,9100,1050,-10500,18772,1,-60,11.0
23,7,1020,980,-1120,2730,18773,1,-57,11.0
26,6,1029,3920,-140,-1190,18774,1,-55,11.0
-208,37,935,-8750,-9730,-15610,18775,1,-65,11.0
142,92,992,6790,-6440,-17500,18776,1,-58,11.0
178,151,1075,-3080,20300,23730,18777,1,-51,12.0
30,-113,1026,-70,-560,9450,18778,1,-74,10.0
8,32,1019,1050,-910,-12250,18779,1,-64,11.0
-61,85,1018,3780,1820,-980,18780,1,-62,11.0
-43,-7,999,560,-1470,-5040,18781,1,-55,11.0
-34,8,1019,-1960,-70,-280,18782,1,-68,11.0
-29,-11,1020,560,-1400,-420,18783,1,-54,11.0
-58,8,1017,910,-910,-770,18784,1,-53,11.0
-45,-7,1019,1120,-1400,-560,18785,1,-56,11.0
-9,-6,1033,-2520,-420,-910,18786,1,-51,11.0
-20,-40,1020,1470,-1610,-490,18787,1,-53,10.0
-39,-10,1021,-490,-2100,-560,18788,1,-54,11.0
-52,-10,1019,1680,-2590,-840,18789,1,-62,7.0
-45,-28,1018,630,-2030,-420,18790,1,-52,11.0
-33,29,1018,-2030,840,1750,18791,1,-55,11.0
-10,22,1019,1260,-1190,1120,18792,1,-57,11.0
-40,24,1020,-70,-3500,-3780,18793,1,-66,10.0
-33,16,1018,560,-3360,-5390,18794,1,-65,6.0
30,-20,1021,1750,-560,11550,18795,1,-59,9.0
-9,15,1020,140,-1400,1260,18796,1,-63,7.0
32,-3,1021,-280,-210,-2170,18797,1,-72,-8.0
10,20,1021,-280,-3220,-36680,18798,1,-66,6.0
-36,8,1020,490,-1190,-1330,18799,1,-60,9.0
44,86,1023,980,-1190,-70,18800,1,-66,5.0
-51,26,1019,1330,490,-3430,18802,1,-61,8.0
-4,37,1023,-630,-560,-12600,18803,1,-57,9.0
-46,2,1017,2100,-910,89180,18804,1,-61,7.0
3,16,1023,1540,-1820,2800,18805,1,-53,10.0
-30,-29,1020,140,-1750,2170,18806,1,-52,10.0
-25,-33,1019,1190,-210,-1260,18807,1,-53,11.0
-53,-43,1017,350,-2030,3710,18808,1,-59,10.0
6,-27,1026,4340,-1890,-11760,18809,1,-56,11.0
-33,5,1019,770,-420,210,18810,1,-55,10.0
-33,-22,1020,420,-1190,-280,18811,1,-51,10.0
49,-77,1019,-2240,-3920,-10430,18812,1,-57,11.0
14,-40,1020,2100,-980,-1050,18813,1,-49,11.0
-33,-3,1019,210,-1330,-490,18814,1,-43,11.0
-20,-11,1019,0,-1470,-420,18815,1,-45,11.0
-9,7,1022,1260,-1680,-490,18816,1,-44,11.0
-6,-93,1018,-560,-840,-2450,18817,1,-44,10.0
-16,-1,1020,1050,-1470,-420,18818,1,-50,11.0
-16,-12,1020,980,-1540,-350,18819,1,-45,11.0
3,-32,1020,1680,980,-350,18820,1,-44,10.0
-10,-13,1020,490,-1470,-420,18821,1,-42,11.0
-9,-13,1020,1120,-1260,-490,18822,1,-44,11.0
-18,3,1019,210,-1470,-420,18823,1,-40,11.0
-11,-22,1020,1960,-1610,-420,18824,1,-49,11.0
-6,-29,1020,1050,-1400,-420,18825,1,-49,12.0
-17,3,1021,2310,-1540,-350,18826,1,-53,11.0
31,-28,1021,-210,-1190,-280,18827,1,-52,12.0
20,-2,1023,630,-1120,-280,18828,1,-48,11.0
-68,-49,1016,770,-2240,1190,18829,1,-48,10.0
65,-21,1025,490,770,-840,18830,1,-47,11.0
-74,27,1015,910,-700,9450,18831,1,-45,11.0
-1,41,1022,210,840,-10640,18832,1,-48,10.0
-12,4,1021,1820,-1610,-420,18833,1,-50,11.0
-74,-4,1014,630,-2170,-140,18834,1,-45,11.0
20,28,1021,840,-1890,-490,18835,1,-47,11.0
-14,16,1020,1610,-1050,7980,18836,1,-51,11.0
20,69,1019,-700,2870,-4830,18837,1,-60,9.0
-19,-17,1021,630,-980,1120,18838,1,-47,11.0
-5,6,1021,210,-1470,-350,18839,1,-45,11.0
-15,-38,1021,350,-1610,-630,18840,1,-52,10.0
-17,-8,1020,2520,-2240,-2870,18841,1,-48,11.0
-5,47,1021,490,-2100,14350,18842,1,-49,11.0
-31,-13,1019,560,-1400,-490,18843,1,-53,11.0
83,5,1018,5250,1540,9100,18844,1,-49,11.0
-108,-66,1015,1750,-3780,-15540,18845,1,-47,10.0
80,60,1023,-350,1540,132790,18846,1,-51,11.0
34,-15,1025,-420,-2100,5250,18847,1,-58,9.0
-31,25,1018,770,-980,-7210,18848,1,-64,7.0
-30,28,1018,420,210,-2800,18849,1,-52,11.0
-7,80,1019,-1610,-2730,70,18850,1,-49,11.0
-13,13,1019,490,-2380,-4340,18851,1,-49,10.0
13,-9,1020,2310,-3290,280,18852,1,-60,9.0
-7,24,1019,-420,-1890,-280,18853,1,-54,10.0
-4,-5,1020,1400,-1540,-420,18854,1,-54,10.0
-36,-7,1018,2170,-3430,-1890,18855,1,-53,11.0
-34,8,1019,2590,-2170,-980,18856,1,-59,11.0
-9,21,1020,560,-490,-420,18857,1,-54,11.0
-21,12,1020,1330,-1820,-210,18858,1,-49,10.0
8,20,1020,560,-1400,-420,18859,1,-57,9.0
-3,30,1020,910,-1470,-420,18860,1,-52,10.0
-9,35,1019,1050,-2170,-2240,18861,1,-56,11.0
-10,34,1019,700,-1470,-910,18862,1,-50,11.0
-5,30,1020,490,-1540,-840,18863,1,-51,11.0
-1,12,1019,1470,-2590,-840,18864,1,-49,11.0
-10,26,1018,-280,-630,-1680,18865,1,-55,11.0
-45,-58,1017,-3850,-4970,109340,18866,1,-53,11.0
23,-49,1021,3220,-2310,-7000,18867,1,-52,12.0
-27,-16,1020,700,-420,-4760,18868,1,-56,11.0
-1,-35,1020,420,-1820,350,18869,1,-53,11.0
-12,-40,1020,700,-1470,-420,18870,1,-54,10.0
-16,-33,1020,560,-1610,-490,18871,1,-46,11.0
-15,-49,1019,1820,-980,-420,18872,1,-53,11.0
-8,-35,1019,1260,-1260,-420,18873,1,-51,11.0
5,-46,1019,420,-1890,-1050,18874,1,-51,10.0
-17,11,1021,2450,-1050,-350,18875,1,-57,11.0
4,-48,1019,1190,-1610,-420,18876,1,-49,10.0
25,-67,1019,2380,-1540,-280,18877,1,-57,11.0
28,-41,1020,140,-2380,-210,18878,1,-55,11.0
46,-65,1018,700,-1960,2450,18879,1,-69,10.0
27,-76,1019,140,-1960,-1400,18880,1,-62,11.0
35,-62,1018,1260,-1820,910,18881,1,-58,11.0
14,-70,1017,-420,-2450,-630,18882,1,-55,10.0
38,-145,1013,3150,-910,70,18883,1,-56,11.0
17,-36,1021,-630,-1890,-910,18884,1,-57,11.0
45,-102,1019,840,-2520,-2940,18885,1,-56,10.0
-9,-55,1016,-1890,-1540,-5810,18886,1,-58,9.0
32,-55,1017,1820,-980,-630,18887,1,-53,10.0
30,-71,1018,1050,-3010,11060,18888,1,-54,11.0
38,-34,1020,1890,-1120,-630,18889,1,-57,12.0
27,-45,1018,-1610,-2380,2660,18890,1,-52,11.0
30,-39,1018,770,-1890,3500,18891,1,-48,11.0
44,-55,1020,2030,70,-1610,18892,1,-51,11.0
50,-62,1020,350,-770,6020,18893,1,-52,11.0
1,-29,1019,70,-2660,19250,18894,1,-53,11.0
6,-31,1021,420,-1890,-6370,18895,1,-51,11.0
14,-68,1019,420,-2170,700,18896,1,-60,11.0
16,-41,1018,630,-1820,980,18897,1,-60,11.0
28,-40,1019,980,-1610,-490,18898,1,-54,11.0
23,-6,1021,-280,-1470,-12250,18899,1,-53,11.0
54,-58,1018,1190,-770,-840,18900,1,-54,11.0
56,-55,1018,1540,-1960,-210,18901,1,-65,11.0
24,-40,1018,1400,-1680,-140,18902,1,-53,11.0
34,-17,1021,140,-1120,-1190,18903,1,-50,10.0
49,-21,1021,700,-1120,-980,18904,1,-50,10.0
26,-31,1019,1540,-2870,70,18905,1,-47,11.0
11,-23,1019,-420,280,-1820,18906,1,-47,10.0
47,-7,1019,1750,-2240,2310,18907,1,-51,10.0
51,-15,1019,-420,-2240,-9170,18908,1,-49,10.0
73,-29,1018,1890,-1260,5460,18909,1,-52,10.0
37,-85,1014,630,2870,36750,18910,1,-63,10.0
-12,-16,1020,-1050,-2030,6860,18911,1,-54,10.0
-6,-4,1021,770,-1820,-420,18912,1,-50,11.0
-10,9,1021,1400,-1120,-420,18913,1,-56,9.0
-6,-10,1021,140,-2030,-420,18914,1,-56,11.0
-7,3,1021,770,-1540,-350,18915,1,-62,11.0
-4,0,1019,630,-1540,-420,18916,1,-56,10.0
14,12,1020,1330,-2170,-350,18917,1,-62,11.0
-23,12,1019,-210,-1540,140,18918,1,-61,11.0
-34,2,1020,-70,-1120,-630,18919,1,-58,11.0
-20,-5,1020,1330,-1820,-980,18920,1,-52,11.0
-43,13,1018,1260,-2170,-560,18921,1,-55,10.0
-32,5,1019,1050,-1260,-420,18922,1,-55,11.0
-48,9,1018,630,-630,-420,18923,1,-56,11.0
-29,14,1021,630,-1610,-490,18924,1,-52,11.0
-34,3,1019,910,-1890,-280,18925,1,-56,11.0
-59,17,1019,630,-1120,-560,18926,1,-49,11.0
-26,-2,1019,700,-2170,-420,18927,1,-59,11.0
-26,-14,1020,840,-1750,-420,18928,1,-49,11.0
-23,-14,1021,1540,-350,-420,18929,1,-47,10.0
0,32,1020,1540,-3080,-840,18930,1,-44,11.0
-54,126,1035,15190,8610,12390,18931,1,-58,11.0
-141,239,966,10570,-2170,-39970,18932,1,-66,11.0
-148,543,934,2940,1050,-1610,18933,1,-52,10.0
-169,227,961,-5670,-17220,35070,18934,1,-55,10.0
-87,197,997,2310,700,-2870,18935,1,-54,11.0
-85,226,992,1820,-1470,-840,18936,1,-54,11.0
-99,206,985,-350,-490,-2030,18937,1,-66,11.0
-51,403,897,14910,-25690,-36190,18938,1,-45,11.0
40,332,986,-4270,6440,-26670,18939,1,-47,10.0
-2,643,761,3780,3780,17570,18940,1,-46,11.0
274,819,441,12250,-490,9520,18941,1,-48,11.0
510,864,287,5670,-1820,30450,18942,1,-39,11.0
441,870,122,2800,11270,45990,18943,1,-48,11.0
369,810,-31,8540,-2940,-16170,18944,1,-39,11.0
367,834,28,-1120,3640,-61740,18945,1,-40,11.0
247,919,36,-2240,9030,19180,18946,1,-43,11.0
279,997,82,6720,-1750,-6510,18947,1,-45,11.0
112,980,43,3080,-1330,9590,18948,1,-39,11.0
69,968,54,700,-4130,-4760,18949,1,-41,11.0
36,1003,42,1890,-2030,-11130,18950,1,-36,11.0
70,995,38,-1120,-490,-1190,18951,1,-35,12.0
85,996,51,1120,-1610,420,18952,1,-37,10.0
131,991,66,140,-1470,490,18953,1,-38,11.0
130,956,60,770,-140,-630,18954,1,-33,11.0
127,979,49,2520,-1260,1400,18955,1,-35,11.0
79,966,41,1890,-560,-2310,18956,1,-33,11.0
85,988,58,840,-840,-1610,18957,1,-38,11.0
52,985,56,630,-1820,-910,18958,1,-34,11.0
54,982,45,840,-840,-420,18959,1,-35,11.0
72,986,51,840,-1540,-700,18960,1,-33,11.0
35,958,51,420,-1750,-3010,18961,1,-35,11.0
-1,925,30,1260,-280,8470,18962,1,-35,11.0
-25,987,67,-2870,-2450,-4900,18963,1,-34,11.0
92,1075,137,-13160,2240,-18480,18964,1,-36,11.0
10,959,311,-4690,-3360,-3710,18965,1,-35,11.0
74,886,404,11620,-3010,17010,18966,1,-42,11.0
197,1023,61,490,-9310,-20440,18967,1,-40,11.0
952,304,1,8330,-1540,13370,18968,1,-41,11.0
961,159,7,-2170,-70,420,18969,1,-62,10.0
968,175,30,2520,420,-12110,18970,1,-47,10.0
1020,145,18,1680,-1260,-630,18971,1,-54,11.0
992,135,3,210,-2170,1890,18972,1,-67,10.0
983,122,21,210,-1400,490,18973,1,-54,11.0
990,125,11,910,-1540,-1330,18974,1,-52,11.0
988,100,-16,-3640,-6720,15470,18975,1,-48,10.0
805,228,48,-7770,7280,12390,18976,1,-40,11.0
882,409,134,-20650,4340,19670,18977,1,-57,11.0
903,428,230,-17220,-6580,-630,18978,1,-46,11.0
775,433,350,-630,14350,-2800,18979,1,-53,11.0
811,479,465,11130,-24080,-5670,18981,1,-34,11.0
814,446,409,7420,-840,-6300,18982,1,-38,11.0
867,375,360,-12670,-2800,6300,18983,1,-41,10.0
567,550,550,-7630,6790,-5390,18984,1,-50,11.0
539,214,852,-21910,-14560,-32200,18985,1,-39,11.0
615,340,760,-7910,-8190,-5250,18986,1,-43,11.0
648,248,434,-5250,1330,-56700,18987,1,-48,11.0
827,425,362,-1400,-1470,-95130,18988,1,-42,11.0
391,745,350,12180,280,-22050,18989,1,-40,11.0
-120,915,309,-350,-2870,13160,18990,1,-46,11.0
134,567,817,-8190,6020,24290,18991,1,-37,11.0
212,597,814,1540,4130,-46970,18993,1,-38,10.0
137,610,795,280,490,7350,18994,1,-33,11.0
114,587,812,280,-1120,-1680,18995,1,-34,11.0
79,584,787,7210,490,-14910,18996,1,-35,10.0
584,592,815,6440,-13650,84560,18997,1,-32,11.0
687,251,716,1050,-980,8120,18998,1,-33,10.0
599,255,779,-2380,140,-700,18999,1,-32,11.0
525,295,807,3570,-980,-280,19000,1,-31,11.0
395,2,949,-12040,-5670,-6930,19001,1,-34,11.0
-23,191,1011,-5250,6300,5740,19002,1,-33,11.0
-457,797,628,3990,-3290,-12530,19003,1,-32,11.0
-333,779,550,-1540,-910,-12110,19004,1,-32,11.0
-366,687,652,-3710,3010,-3850,19005,1,-31,11.0
-404,772,477,9590,12740,-12180,19006,1,-30,11.0
-419,841,311,-4760,2800,-29260,19007,1,-36,11.0
-498,514,558,10220,-27510,-12530,19008,1,-29,10.0
-155,538,785,-12600,43960,74550,19009,1,-27,10.0
-128,864,481,10430,-770,14000,19010,1,-36,11.0
111,990,266,5880,-6090,9520,19011,1,-42,11.0
272,1007,67,9520,-3990,-20300,19012,1,-59,11.0
296,938,26,-1470,-7700,9590,19013,1,-43,11.0
248,994,0,280,-630,-18340,19014,1,-37,11.0
269,943,-8,140,-420,3500,19015,1,-36,11.0
345,942,54,7490,6510,-5880,19016,1,-40,11.0
361,912,-3,7980,9450,8190,19017,1,-37,10.0
501,880,-13,1750,7280,-24290,19018,1,-48,11.0
526,827,-36,770,-910,-33320,19019,1,-42,11.0
503,848,-30,-6020,-5810,-16380,19020,1,-40,11.0
521,837,-30,-140,-7700,-12670,19021,1,-45,11.0
600,725,8,-2730,-6860,-14630,19022,1,-46,10.0
681,766,15,490,-1120,-5390,19023,1,-49,11.0
683,729,22,490,-1540,980,19024,1,-49,11.0
704,705,22,910,-980,1330,19025,1,-53,11.0
673,714,25,1260,-1190,350,19026,1,-54,11.0
335,879,-8,-15330,-33040,-16030,19027,1,-48,10.0
-216,951,184,-490,-1960,6790,19028,1,-54,10.0
77,1036,159,-6720,-2800,7210,19029,1,-36,11.0
40,955,201,1680,-1050,3570,19030,1,-35,10.0
318,912,141,1750,-3220,-2940,19031,1,-36,11.0
201,973,128,840,-23310,27510,19032,1,-54,10.0
-14,1029,179,4760,4060,36260,19033,1,-46,11.0
-49,999,-114,-9240,-3780,-7840,19034,1,-40,11.0
202,939,-20,560,-1400,78190,19035,1,-39,11.0
199,958,51,840,5040,-21910,19036,1,-38,11.0
274,896,160,-11760,4480,-24290,19037,1,-39,12.0
304,896,155,2100,10080,7350,19038,1,-35,10.0
177,942,283,-5880,-5040,3850,19039,1,-33,11.0
168,906,427,4270,4970,4340,19040,1,-38,11.0
239,908,331,700,-2030,-5390,19041,1,-42,11.0
179,919,308,2520,3010,-980,19042,1,-38,11.0
162,939,269,1680,-6860,-5950,19043,1,-40,11.0
174,947,200,3640,-4130,1610,19044,1,-43,11.0
191,988,201,140,-280,10150,19045,1,-38,10.0
175,945,177,280,-840,-2310,19046,1,-40,11.0
167,922,160,-350,-3080,-1120,19047,1,-40,11.0
184,952,212,70,-1260,1610,19048,1,-43,11.0
180,952,228,-1610,-1050,-140,19049,1,-43,11.0
60,931,138,-630,-700,9310,19050,1,-34,11.0
69,1013,153,-6020,-2730,-2030,19051,1,-41,11.0
136,962,156,3710,-4130,5460,19052,1,-41,10.0
84,955,194,350,-2800,-1400,19053,1,-42,11.0
128,946,293,-1260,-4340,1190,19054,1,-56,10.0
202,974,24,7140,-4900,1260,19055,1,-53,11.0
91,997,-34,2240,0,420,19056,1,-59,11.0
179,970,65,-560,-2380,7000,19057,1,-46,10.0
109,990,116,-7070,-9800,-2940,19058,1,-54,11.0
225,878,432,3990,-1890,27860,19059,1,-49,11.0
158,860,533,-5880,-3290,3360,19060,1,-48,11.0
196,960,320,6300,-840,-37870,19061,1,-46,11.0
192,989,408,-2940,-14770,-14420,19062,1,-43,11.0
188,1032,243,7490,770,-13510,19063,1,-41,11.0
73,940,320,-910,5040,20440,19064,1,-42,11.0
96,866,462,1750,-2380,-3780,19065,1,-41,10.0
862,492,386,-1050,-4130,131600,19066,1,-52,11.0
927,87,359,1470,-1960,-420,19067,1,-42,10.0
951,84,322,1120,-2450,700,19068,1,-41,11.0
-123,940,259,6440,-140,-147910,19069,1,-41,12.0
-975,88,223,-1330,-3990,-42350,19070,1,-40,11.0
-368,1093,422,280,210,63140,19071,1,-37,11.0
971,-225,257,-3220,-1330,-2940,19072,1,-37,11.0
925,-338,236,3710,-2240,-350,19073,1,-47,11.0
1012,-128,282,-4410,1120,-13510,19074,1,-48,11.0
911,-269,287,3640,-1820,-6370,19075,1,-48,11.0
962,238,231,-350,-2730,4690,19076,1,-42,10.0
977,61,250,-1610,-5040,-1260,19077,1,-43,11.0
861,-87,513,5040,29890,-840,19078,1,-39,11.0
449,-114,928,1050,-5180,5880,19079,1,-34,11.0
912,-271,299,-1330,-770,-30240,19080,1,-38,11.0
975,-244,188,7350,-4620,-2940,19081,1,-35,11.0
984,-208,157,-2310,-2450,-15680,19082,1,-30,11.0
928,-118,118,-1610,-3570,6300,19083,1,-32,11.0
998,-160,39,-420,560,-140,19084,1,-29,11.0
974,-66,182,20300,4200,-7280,19085,1,-46,11.0
869,-186,125,-2940,-11060,-50750,19086,1,-55,10.0
904,-91,190,3010,-2590,35980,19087,1,-35,11.0
994,118,126,1050,-6580,8050,19088,1,-33,11.0
1025,50,20,-770,-280,-6300,19089,1,-31,11.0
1013,-35,-41,8960,-3570,1890,19090,1,-36,11.0
958,-9,150,-6650,5950,-7210,19091,1,-35,11.0
968,-17,165,6160,-6930,0,19092,1,-28,10.0
1003,69,-99,-2590,-2170,15890,19093,1,-33,10.0
1078,-50,-49,13020,-5670,-6090,19094,1,-31,11.0
1027,190,-59,41090,17150,420,19095,1,-36,11.0
989,-14,-22,26180,-12530,-8750,19096,1,-40,11.0
903,66,-190,560,2800,-7560,19097,1,-55,10.0
949,236,209,1540,10920,-5320,19098,1,-45,10.0
1022,154,180,-2240,-1680,14700,19099,1,-68,10.0
951,175,5,20160,-1120,-1120,19100,1,-52,11.0
957,220,-13,4830,-2170,-3990,19101,1,-54,10.0
964,215,-29,-980,-3780,4130,19102,1,-53,10.0
981,190,-68,7140,630,-5670,19103,1,-54,11.0
1195,263,-203,5670,-9240,4970,8,1,-51,11.0
988,211,-50,3780,910,-7280,10,1,-48,10.0
765,149,4,4900,3220,-29260,11,1,-45,11.0
809,174,-75,5600,840,-12390,12,1,-67,10.0
897,319,-46,-1260,-910,-22680,13,1,-52,11.0
916,461,90,4970,1750,2590,14,1,-50,11.0
706,184,73,13230,1540,43680,15,1,-46,11.0
1100,378,-144,0,5110,3010,16,1,-47,11.0
999,190,-6,1190,-6510,10290,17,1,-48,11.0
923,347,-150,6370,280,-3990,18,1,-43,11.0
950,318,-87,-770,-2030,-210,19,1,-34,11.0
934,311,-100,700,-5250,-8960,20,1,-32,11.0
956,327,-141,-4060,-1610,-1750,21,1,-30,11.0
